# Session ID: 20250816_094939
# Start Time: 1755330579465
# Device ID: watch_1
# Sample Count: 1162
# Generated by Watch IMU Recorder
timestamp,accel_x,accel_y,accel_z,gyro_x,gyro_y,gyro_z,mag_x,mag_y,mag_z,watch_name
15647249987468,0.34456646,-4.7916274,8.625527,-0.0097738365,0.115453444,-0.037110034,-0.46875003,28.0125,-17.98125,watch_1
15647269057884,0.34456646,-4.88734,8.592028,-0.0097738365,0.115453444,-0.037110034,-0.46875003,28.0125,-17.98125,watch_1
15647288109603,0.41156548,-4.8825545,8.539386,-0.0097738365,0.115453444,-0.037110034,-0.46875003,28.0125,-17.98125,watch_1
15647307183666,0.41635114,-4.8442693,8.5681,-0.0097738365,0.115453444,-0.037110034,-0.46875003,28.0125,-17.98125,watch_1
15647326256634,0.3589234,-4.8586264,8.577671,-0.0097738365,0.115453444,-0.037110034,-0.46875003,28.0125,-17.98125,watch_1
15647345330645,0.28235307,-4.820341,8.558528,-0.0097738365,0.115453444,-0.037110034,-0.46875003,28.0125,-17.98125,watch_1
15647340367884,0.28235307,-4.820341,8.558528,-0.0048869182,-0.0018325944,-0.0029016077,-0.46875003,28.0125,-17.98125,watch_1
15647379362155,0.28235307,-4.820341,8.558528,-0.0048869182,-0.0018325944,-0.0029016077,12.262501,16.800001,-30.393751,watch_1
15647364403666,0.26799613,-4.6911287,8.539386,-0.0048869182,-0.0018325944,-0.0029016077,12.262501,16.800001,-30.393751,watch_1
15647359440905,0.26799613,-4.6911287,8.539386,-0.017104214,-0.01527162,-0.0065667965,12.262501,16.800001,-30.393751,watch_1
15647389362103,0.26799613,-4.6911287,8.539386,-0.017104214,-0.01527162,-0.0065667965,13.1625,13.743751,-28.10625,watch_1
15647383477676,0.19142582,-4.648058,8.539386,-0.02932151,-0.023823727,-0.010231985,12.13125,15.7875,-30.6,watch_1
15647399362051,0.19142582,-4.648058,8.539386,-0.02932151,-0.023823727,-0.010231985,12.13125,15.7875,-30.6,watch_1
15647378514916,0.19142582,-4.648058,8.539386,-0.02932151,-0.023823727,-0.010231985,12.13125,15.7875,-30.6,watch_1
15647409361999,0.19142582,-4.648058,8.539386,-0.02932151,-0.023823727,-0.010231985,11.493751,17.025002,-32.550003,watch_1
15647397587884,0.2009971,-4.729414,8.654242,-0.02443459,-0.031154104,-0.010231985,11.493751,17.025002,-32.550003,watch_1
15647402550645,0.2009971,-4.729414,8.654242,-0.02443459,-0.031154104,-0.010231985,11.493751,17.025002,-32.550003,watch_1
15647419361947,0.2009971,-4.729414,8.654242,-0.02443459,-0.031154104,-0.010231985,13.293751,16.63125,-29.531252,watch_1
15647429361895,0.2009971,-4.729414,8.654242,-0.02443459,-0.031154104,-0.010231985,12.76875,16.0125,-30.4125,watch_1
15647416661895,0.18664017,-4.7629137,8.697312,-0.015882485,-0.033597562,-0.010231985,12.76875,16.0125,-30.4125,watch_1
15647421624655,0.18664017,-4.7629137,8.697312,-0.015882485,-0.033597562,-0.010231985,12.76875,16.0125,-30.4125,watch_1
15647439361843,0.18664017,-4.7629137,8.697312,-0.015882485,-0.033597562,-0.010231985,12.450001,17.41875,-31.893751,watch_1
15647449361791,0.17706887,-4.81077,8.72124,-0.015882485,-0.033597562,-0.010231985,12.900001,15.900001,-30.825,watch_1
15647440697676,0.17706887,-4.81077,8.72124,-0.015882485,-0.033597562,-0.010231985,12.900001,15.900001,-30.825,watch_1
15647435734916,0.17706887,-4.81077,8.72124,-0.013439025,-0.03848448,-0.007788526,12.900001,15.900001,-30.825,watch_1
15647459361739,0.17706887,-4.81077,8.72124,-0.013439025,-0.03848448,-0.007788526,11.1,15.95625,-31.462502,watch_1
15647454808874,0.19142582,-4.753342,8.687741,-0.014660755,-0.037262753,-0.0029016077,12.337501,15.150001,-32.268753,watch_1
15647459771634,0.19142582,-4.753342,8.687741,-0.014660755,-0.037262753,-0.0029016077,12.337501,15.150001,-32.268753,watch_1
15647469361686,0.19142582,-4.753342,8.687741,-0.014660755,-0.037262753,-0.0029016077,12.337501,15.150001,-32.268753,watch_1
15647479361634,0.19142582,-4.753342,8.687741,-0.014660755,-0.037262753,-0.0029016077,10.875,16.63125,-31.125002,watch_1
15647478814655,0.19142582,-4.772485,8.659027,-0.021991132,-0.034819294,0.0044287695,10.875,16.63125,-31.125002,watch_1
15647473851895,0.19142582,-4.772485,8.659027,-0.021991132,-0.034819294,0.0044287695,10.875,16.63125,-31.125002,watch_1
15647489361582,0.19142582,-4.772485,8.659027,-0.021991132,-0.034819294,0.0044287695,12.431251,16.95,-29.5125,watch_1
15647499361530,0.19142582,-4.772485,8.659027,-0.021991132,-0.034819294,0.0044287695,11.137501,17.8125,-32.081253,watch_1
15647492924916,0.19142582,-4.772485,8.659027,-0.018325943,-0.027488915,0.011759147,12.243751,17.1375,-32.756252,watch_1
15647509361478,0.19142582,-4.772485,8.659027,-0.018325943,-0.027488915,0.011759147,12.243751,17.1375,-32.756252,watch_1
15647497887676,0.18185452,-4.8442693,8.687741,-0.018325943,-0.027488915,0.011759147,12.243751,17.1375,-32.756252,watch_1
15647519361426,0.18185452,-4.8442693,8.687741,-0.018325943,-0.027488915,0.011759147,10.70625,16.48125,-31.425001,watch_1
15647516961634,0.23928227,-4.738985,8.635098,-0.018325943,-0.027488915,0.011759147,10.70625,16.48125,-31.425001,watch_1
15647511998874,0.23928227,-4.738985,8.635098,-0.0061086477,-0.021380268,0.015424335,10.70625,16.48125,-31.425001,watch_1
15647529361374,0.23928227,-4.738985,8.635098,-0.0061086477,-0.021380268,0.015424335,12.0375,15.093751,-31.556252,watch_1
15647539361322,0.23928227,-4.738985,8.635098,-0.0061086477,-0.021380268,0.015424335,12.4875,16.125,-30.300001,watch_1
15647531071895,0.20578274,-4.7772703,8.630313,-0.0048869182,-0.016493348,0.019089524,12.4875,16.125,-30.300001,watch_1
15647536034655,0.20578274,-4.7772703,8.630313,-0.0048869182,-0.016493348,0.019089524,12.4875,16.125,-30.300001,watch_1
15647549361270,0.20578274,-4.7772703,8.630313,-0.0048869182,-0.016493348,0.019089524,12.243751,16.800001,-30.975,watch_1
15647559361218,0.20578274,-4.7772703,8.630313,-0.0048869182,-0.016493348,0.019089524,12.150001,16.10625,-31.95,watch_1
15647555107676,0.23928227,-4.753342,8.577671,-0.0048869182,-0.016493348,0.019089524,12.150001,16.10625,-31.95,watch_1
15647550144916,0.23928227,-4.753342,8.577671,-0.0097738365,-0.0140498895,0.017867794,13.837501,16.125,-29.2875,watch_1
15647569361166,0.23928227,-4.753342,8.577671,-0.0097738365,-0.0140498895,0.017867794,13.837501,16.125,-29.2875,watch_1
15647579361114,0.23928227,-4.753342,8.577671,-0.0097738365,-0.0140498895,0.017867794,12.150001,16.10625,-31.95,watch_1
15647574181634,0.31585258,-4.7485566,8.615956,-0.013439025,-0.01282816,0.016646065,12.150001,16.10625,-31.95,watch_1
15647569218874,0.31585258,-4.7485566,8.615956,-0.013439025,-0.01282816,0.016646065,12.150001,16.10625,-31.95,watch_1
15647589361061,0.31585258,-4.7485566,8.615956,-0.013439025,-0.01282816,0.016646065,12.150001,17.362501,-31.331251,watch_1
15647599361009,0.31585258,-4.7485566,8.615956,-0.013439025,-0.01282816,0.016646065,12.806251,16.462502,-31.181252,watch_1
15647593254655,0.38763726,-4.772485,8.639884,-0.014660755,-0.010384701,0.014202606,12.806251,16.462502,-31.181252,watch_1
15647588291895,0.38763726,-4.772485,8.639884,-0.014660755,-0.010384701,0.014202606,12.806251,16.462502,-31.181252,watch_1
15647609360957,0.38763726,-4.772485,8.639884,-0.014660755,-0.010384701,0.014202606,11.887501,17.60625,-30.956251,watch_1
15647619360905,0.38763726,-4.772485,8.639884,-0.014660755,-0.010384701,0.014202606,12.168751,17.6625,-31.650002,watch_1
15647607365905,0.40677986,-4.7581277,8.630313,-0.0061086477,-0.0067195124,0.009315688,12.168751,17.6625,-31.650002,watch_1
15647612328666,0.40677986,-4.7581277,8.630313,-0.0061086477,-0.0067195124,0.009315688,12.168751,17.6625,-31.650002,watch_1
15647629360853,0.40677986,-4.7581277,8.630313,-0.0061086477,-0.0067195124,0.009315688,10.44375,18.45,-32.943752,watch_1
15647639360801,0.40677986,-4.7581277,8.630313,-0.0061086477,-0.0067195124,0.009315688,12.31875,17.550001,-31.781252,watch_1
15647626438874,0.3924229,-4.715057,8.630313,-0.0061086477,-0.0042760535,0.00320704,12.31875,17.550001,-31.781252,watch_1
15647631401634,0.3924229,-4.715057,8.630313,-0.0061086477,-0.0042760535,0.00320704,12.31875,17.550001,-31.781252,watch_1
15647649360749,0.3924229,-4.715057,8.630313,-0.0061086477,-0.0042760535,0.00320704,10.35,19.0125,-33.45,watch_1
15647659360697,0.3924229,-4.715057,8.630313,-0.0061086477,-0.0042760535,0.00320704,11.2875,16.575,-32.662502,watch_1
15647650475645,0.38285163,-4.662415,8.659027,0.0012217296,-0.005497783,-0.004123337,11.2875,16.575,-32.662502,watch_1
15647645512884,0.38285163,-4.662415,8.659027,0.0012217296,-0.005497783,-0.004123337,11.2875,16.575,-32.662502,watch_1
15647669360645,0.38285163,-4.662415,8.659027,0.0012217296,-0.005497783,-0.004123337,11.00625,16.837502,-33.018753,watch_1
15647679360593,0.4211368,-4.6672006,8.596813,0.0012217296,-0.005497783,-0.004123337,13.6125,18.5625,-32.30625,watch_1
15647669518666,0.4211368,-4.6672006,8.596813,0.0012217296,-0.005497783,-0.004123337,13.6125,18.5625,-32.30625,watch_1
15647664555905,0.4211368,-4.6672006,8.596813,0.0,-0.010384701,-0.009010255,13.6125,18.5625,-32.30625,watch_1
15647689360541,0.4211368,-4.6672006,8.596813,0.0,-0.010384701,-0.009010255,11.306251,18.13125,-32.68125,watch_1
15647683628874,0.4211368,-4.6672006,8.596813,0.0012217296,-0.011606431,-0.0065667965,11.19375,18.581251,-33.9,watch_1
15647699360489,0.4211368,-4.6672006,8.596813,0.0012217296,-0.011606431,-0.0065667965,11.19375,18.581251,-33.9,watch_1
15647688591634,0.38763726,-4.753342,8.668598,0.0012217296,-0.011606431,-0.0065667965,11.19375,18.581251,-33.9,watch_1
15647709360436,0.38763726,-4.753342,8.668598,0.0012217296,-0.011606431,-0.0065667965,10.3125,17.15625,-32.100002,watch_1
15647702702884,0.38763726,-4.753342,8.668598,0.0036651888,-0.016493348,0.006872229,10.3125,17.15625,-32.100002,watch_1
15647719360384,0.38763726,-4.753342,8.668598,0.0036651888,-0.016493348,0.006872229,11.325001,18.13125,-31.95,watch_1
15647707665645,0.44985065,-4.705486,8.706883,0.0036651888,-0.016493348,0.006872229,11.325001,18.13125,-31.95,watch_1
15647729360332,0.44985065,-4.705486,8.706883,0.0036651888,-0.016493348,0.006872229,11.1,17.550001,-33.075,watch_1
15647739360280,0.3589234,-4.9495535,8.711669,-0.0073303776,-0.018936807,0.016646065,11.34375,16.837502,-30.937502,watch_1
15647721775905,0.3589234,-4.9495535,8.711669,-0.0073303776,-0.018936807,0.016646065,11.34375,16.837502,-30.937502,watch_1
15647726738666,0.3589234,-4.9495535,8.711669,-0.0073303776,-0.018936807,0.016646065,11.34375,16.837502,-30.937502,watch_1
15647749360228,0.3589234,-4.9495535,8.711669,-0.0073303776,-0.018936807,0.016646065,12.075001,15.056251,-29.23125,watch_1
15647745812676,0.35413775,-4.944768,8.5728855,-0.0073303776,-0.018936807,0.016646065,12.075001,15.056251,-29.23125,watch_1
15647740849916,0.35413775,-4.944768,8.5728855,-0.0036651888,-0.017715078,0.0129808765,12.075001,15.056251,-29.23125,watch_1
15647759360176,0.35413775,-4.944768,8.5728855,-0.0036651888,-0.017715078,0.0129808765,11.71875,19.181252,-32.737503,watch_1
15647769360124,0.35413775,-4.944768,8.5728855,-0.0036651888,-0.017715078,0.0129808765,10.387501,18.206251,-34.537502,watch_1
15647759922884,0.30149564,-4.8969116,8.520244,0.0036651888,-0.0140498895,0.0044287695,10.387501,18.206251,-34.537502,watch_1
15647764885645,0.30149564,-4.8969116,8.520244,0.0036651888,-0.0140498895,0.0044287695,10.387501,18.206251,-34.537502,watch_1
15647779360072,0.30149564,-4.8969116,8.520244,0.0036651888,-0.0140498895,0.0044287695,10.35,17.75625,-33.9,watch_1
15647789360020,0.30149564,-4.8969116,8.520244,0.0036651888,-0.0140498895,0.0044287695,13.63125,18.54375,-30.843752,watch_1
15647783959655,0.23928227,-4.9974103,8.477173,0.0036651888,-0.01527162,-0.009010255,12.562501,17.15625,-31.706251,watch_1
15647778996895,0.23928227,-4.9974103,8.477173,0.0036651888,-0.01527162,-0.009010255,12.562501,17.15625,-31.706251,watch_1
15647799359968,0.23928227,-4.9974103,8.477173,0.0036651888,-0.01527162,-0.009010255,12.562501,17.15625,-31.706251,watch_1
15647809359916,0.23928227,-4.9974103,8.477173,0.0036651888,-0.01527162,-0.009010255,9.993751,18.5625,-34.18125,watch_1
15647798069916,0.23928227,-4.9974103,8.477173,0.0048869182,-0.018936807,-0.022449281,9.993751,18.5625,-34.18125,watch_1
15647803032676,0.23928227,-5.0069814,8.400602,0.0048869182,-0.018936807,-0.022449281,9.993751,18.5625,-34.18125,watch_1
15647819359864,0.23928227,-5.0069814,8.400602,0.0048869182,-0.018936807,-0.022449281,10.33125,17.456251,-33.15,watch_1
15647829359811,0.23928227,-5.0069814,8.400602,0.0048869182,-0.018936807,-0.022449281,11.625,18.487501,-33.693752,watch_1
15647817143874,0.23928227,-5.0069814,8.400602,0.0048869182,-0.022601997,-0.029779658,11.625,18.487501,-33.693752,watch_1
15647822106634,0.2536392,-4.9160542,8.414959,0.0048869182,-0.022601997,-0.029779658,11.625,18.487501,-33.693752,watch_1
15647839359759,0.2536392,-4.9160542,8.414959,0.0048869182,-0.022601997,-0.029779658,12.0,18.9375,-32.8125,watch_1
15647849359707,0.2536392,-4.9160542,8.414959,0.0048869182,-0.022601997,-0.029779658,11.83125,16.087502,-32.41875,watch_1
15647841179655,0.33020952,-4.820341,8.472386,0.0048869182,-0.022601997,-0.029779658,11.83125,16.087502,-32.41875,watch_1
15647836216895,0.33020952,-4.820341,8.472386,-0.014660755,-0.031154104,-0.02489274,11.83125,16.087502,-32.41875,watch_1
15647859359655,0.33020952,-4.820341,8.472386,-0.014660755,-0.031154104,-0.02489274,11.137501,17.8125,-31.781252,watch_1
15647869359603,0.33020952,-4.820341,8.472386,-0.014660755,-0.031154104,-0.02489274,11.00625,16.518751,-31.968752,watch_1
15647855259916,0.33020952,-4.820341,8.472386,-0.034208428,-0.037262753,-0.013897174,11.00625,16.518751,-31.968752,watch_1
15647860222676,0.30149564,-4.9160542,8.5728855,-0.034208428,-0.037262753,-0.013897174,11.00625,16.518751,-31.968752,watch_1
15647879359551,0.30149564,-4.9160542,8.5728855,-0.034208428,-0.037262753,-0.013897174,11.137501,17.8125,-31.781252,watch_1
15647879296634,0.3493521,-4.92084,8.659027,-0.034208428,-0.037262753,-0.013897174,11.137501,17.8125,-31.781252,watch_1
15647874333874,0.3493521,-4.92084,8.659027,-0.03176497,-0.045814857,-0.010231985,13.5375,13.06875,-27.2625,watch_1
15647889359499,0.3493521,-4.92084,8.659027,-0.03176497,-0.045814857,-0.010231985,13.5375,13.06875,-27.2625,watch_1
15647899359447,0.3493521,-4.92084,8.659027,-0.03176497,-0.045814857,-0.010231985,12.0,18.28125,-28.687502,watch_1
15647898369655,0.31585258,-4.88734,8.64467,-0.03176497,-0.045814857,-0.010231985,12.0,18.28125,-28.687502,watch_1
15647893406895,0.31585258,-4.88734,8.64467,-0.02565632,-0.04459313,-0.011453714,12.0,18.28125,-28.687502,watch_1
15647919359343,0.31585258,-4.88734,8.64467,-0.02565632,-0.04459313,-0.011453714,12.20625,16.518751,-30.956251,watch_1
15647909359395,0.31585258,-4.88734,8.64467,-0.02565632,-0.04459313,-0.011453714,12.20625,16.518751,-30.956251,watch_1
15647912480905,0.31585258,-4.88734,8.64467,-0.014660755,-0.037262753,-0.022449281,12.20625,16.518751,-30.956251,watch_1
15647929359291,0.31585258,-4.88734,8.64467,-0.014660755,-0.037262753,-0.022449281,9.262501,17.00625,-31.931252,watch_1
15647917443666,0.28713873,-4.863412,8.64467,-0.014660755,-0.037262753,-0.022449281,9.262501,17.00625,-31.931252,watch_1
15647939359239,0.28713873,-4.863412,8.64467,-0.014660755,-0.037262753,-0.022449281,11.85,17.325,-31.368752,watch_1
15647936516634,0.31106696,-4.7676992,8.587242,-0.014660755,-0.037262753,-0.022449281,11.85,17.325,-31.368752,watch_1
15647931553874,0.31106696,-4.7676992,8.587242,-0.0036651888,-0.027488915,-0.037110034,10.875,18.225,-32.5875,watch_1
15647949359186,0.31106696,-4.7676992,8.587242,-0.0036651888,-0.027488915,-0.037110034,10.875,18.225,-32.5875,watch_1
15647959359134,0.31106696,-4.7676992,8.587242,-0.0036651888,-0.027488915,-0.037110034,10.837501,17.79375,-32.550003,watch_1
15647950627884,0.31106696,-4.7676992,8.587242,0.0024434591,-0.018936807,-0.041996952,10.837501,17.79375,-32.550003,watch_1
15647955590645,0.4642076,-4.662415,8.563314,0.0024434591,-0.018936807,-0.041996952,10.837501,17.79375,-32.550003,watch_1
15647969359082,0.4642076,-4.662415,8.563314,0.0024434591,-0.018936807,-0.041996952,10.1625,17.2875,-33.018753,watch_1
15647979359030,0.4642076,-4.662415,8.563314,0.0024434591,-0.018936807,-0.041996952,11.212501,18.54375,-32.5875,watch_1
15647974663666,0.3589234,-4.9926243,8.749954,0.0024434591,-0.018936807,-0.041996952,11.212501,18.54375,-32.5875,watch_1
15647969700905,0.3589234,-4.9926243,8.749954,0.0048869182,-0.007941242,-0.041996952,11.212501,18.54375,-32.5875,watch_1
15647989358978,0.3589234,-4.9926243,8.749954,0.0048869182,-0.007941242,-0.041996952,11.325001,18.112501,-31.650002,watch_1
15647999358926,0.3589234,-4.9926243,8.749954,0.0048869182,-0.007941242,-0.041996952,12.3,18.65625,-31.44375,watch_1
15647988774916,0.3589234,-4.9926243,8.749954,0.02443459,-0.0067195124,-0.05177079,12.3,18.65625,-31.44375,watch_1
15647993737676,0.46899325,-4.9543395,8.850452,0.02443459,-0.0067195124,-0.05177079,12.3,18.65625,-31.44375,watch_1
15648009358874,0.46899325,-4.9543395,8.850452,0.02443459,-0.0067195124,-0.05177079,10.575001,18.018751,-31.29375,watch_1
15648019358822,0.46899325,-4.9543395,8.850452,0.02443459,-0.0067195124,-0.05177079,9.993751,18.54375,-33.45,watch_1
15648007847884,0.57906306,-4.8681974,8.927023,0.042760536,-0.007941242,-0.07009673,9.993751,18.54375,-33.45,watch_1
15648012810645,0.57906306,-4.8681974,8.927023,0.02443459,-0.0067195124,-0.05177079,9.993751,18.54375,-33.45,watch_1
15648029358770,0.57906306,-4.8681974,8.927023,0.042760536,-0.007941242,-0.07009673,12.337501,17.831251,-32.081253,watch_1
15648039358718,0.57906306,-4.8681974,8.927023,0.042760536,-0.007941242,-0.07009673,11.64375,18.150002,-31.612501,watch_1
15648031884655,0.55034924,-4.863412,9.151948,0.062308207,-0.0140498895,-0.093309596,11.64375,18.150002,-31.612501,watch_1
15648026921895,0.55034924,-4.863412,9.151948,0.062308207,-0.0140498895,-0.093309596,11.64375,18.150002,-31.612501,watch_1
15648049358666,0.55034924,-4.863412,9.151948,0.062308207,-0.0140498895,-0.093309596,11.681251,15.918751,-32.268753,watch_1
15648059358614,0.35413775,-4.8251266,9.419945,0.062308207,-0.0140498895,-0.093309596,11.493751,18.6,-33.43125,watch_1
15648050927676,0.35413775,-4.8251266,9.419945,0.062308207,-0.0140498895,-0.093309596,11.493751,18.6,-33.43125,watch_1
15648045964916,0.35413775,-4.8251266,9.419945,0.10262528,-0.033597562,-0.12018765,11.493751,18.6,-33.43125,watch_1
15648069358561,0.35413775,-4.8251266,9.419945,0.10262528,-0.033597562,-0.12018765,12.712501,18.6,-32.550003,watch_1
15648079358509,0.35413775,-4.8251266,9.419945,0.10262528,-0.033597562,-0.12018765,11.962501,17.0625,-31.7625,watch_1
15648070000645,0.19142582,-4.7007003,9.568299,0.11728604,-0.056810424,-0.1556178,11.962501,17.0625,-31.7625,watch_1
15648065037884,0.19142582,-4.7007003,9.568299,0.11728604,-0.056810424,-0.1556178,11.962501,17.0625,-31.7625,watch_1
15648089358457,0.19142582,-4.7007003,9.568299,0.11728604,-0.056810424,-0.1556178,10.125,18.112501,-32.23125,watch_1
15648089074655,0.14356937,-4.5188456,9.72144,0.11728604,-0.056810424,-0.1556178,10.125,18.112501,-32.23125,watch_1
15648084111895,0.14356937,-4.5188456,9.72144,0.091629714,-0.08491021,-0.20204352,9.806251,18.4125,-34.612503,watch_1
15648099358405,0.14356937,-4.5188456,9.72144,0.091629714,-0.08491021,-0.20204352,9.806251,18.4125,-34.612503,watch_1
15648109358353,0.14356937,-4.5188456,9.72144,0.091629714,-0.08491021,-0.20204352,11.0625,18.69375,-33.768753,watch_1
15648103184916,0.10049855,-4.6289153,9.64487,0.018325943,-0.12034036,-0.26190826,11.0625,18.69375,-33.768753,watch_1
15648108147676,0.10049855,-4.6289153,9.64487,0.018325943,-0.12034036,-0.26190826,11.0625,18.69375,-33.768753,watch_1
15648119358301,0.10049855,-4.6289153,9.64487,0.018325943,-0.12034036,-0.26190826,10.275001,17.98125,-31.7625,watch_1
15648129358249,0.10049855,-4.6289153,9.64487,0.018325943,-0.12034036,-0.26190826,10.668751,19.050001,-32.831253,watch_1
15648122258874,0.10049855,-4.6289153,9.64487,-0.056199558,-0.15821397,-0.3205513,10.668751,19.050001,-32.831253,watch_1
15648127221634,0.047856454,-4.8825545,9.482158,-0.056199558,-0.15821397,-0.3205513,10.387501,16.29375,-31.875002,watch_1
15648139358197,0.047856454,-4.8825545,9.482158,-0.056199558,-0.15821397,-0.3205513,10.387501,16.29375,-31.875002,watch_1
15648149358145,0.047856454,-4.8825545,9.482158,-0.056199558,-0.15821397,-0.3205513,10.2375,18.018751,-33.35625,watch_1
15648146294655,0.1052842,-4.9160542,9.467801,-0.09407318,-0.19975278,-0.3620901,10.2375,18.018751,-33.35625,watch_1
15648141331895,0.1052842,-4.9160542,9.467801,-0.09407318,-0.19975278,-0.3620901,10.2375,18.018751,-33.35625,watch_1
15648159358093,0.1052842,-4.9160542,9.467801,-0.09407318,-0.19975278,-0.3620901,10.44375,16.875,-31.931252,watch_1
15648169358041,0.1052842,-4.9160542,9.467801,-0.09407318,-0.19975278,-0.3620901,9.525001,18.1875,-32.8875,watch_1
15648165368666,0.51206404,-5.0548377,9.635299,-0.08552107,-0.2547306,-0.41706792,9.525001,18.1875,-32.8875,watch_1
15648160405905,0.51206404,-5.0548377,9.635299,-0.08552107,-0.2547306,-0.41706792,9.525001,18.1875,-32.8875,watch_1
15648179357989,0.51206404,-5.0548377,9.635299,-0.08552107,-0.2547306,-0.41706792,9.975,18.2625,-33.131252,watch_1
15648189357936,0.51206404,-5.0548377,9.635299,-0.08552107,-0.2547306,-0.41706792,9.6,20.025002,-32.175003,watch_1
15648184441634,1.3160524,-5.2510495,10.601999,-0.08552107,-0.2547306,-0.41706792,9.6,20.025002,-32.175003,watch_1
15648179478874,1.3160524,-5.2510495,10.601999,0.02687805,-0.37079492,-0.47815442,9.6,20.025002,-32.175003,watch_1
15648199357884,1.3160524,-5.2510495,10.601999,0.02687805,-0.37079492,-0.47815442,9.39375,18.6375,-34.3875,watch_1
15648209357832,1.3160524,-5.2510495,10.601999,0.02687805,-0.37079492,-0.47815442,10.35,17.75625,-33.9,watch_1
15648198551895,1.2777673,-4.9256253,10.678569,0.27855435,-0.47830713,-0.51236284,10.35,17.75625,-33.9,watch_1
15648203514655,1.2777673,-4.9256253,10.678569,0.27855435,-0.47830713,-0.51236284,10.35,17.75625,-33.9,watch_1
15648219357780,1.2777673,-4.9256253,10.678569,0.27855435,-0.47830713,-0.51236284,7.8750005,18.28125,-33.375,watch_1
15648229357728,1.2777673,-4.9256253,10.678569,0.27855435,-0.47830713,-0.51236284,7.6875005,17.8125,-32.475002,watch_1
15648222588666,1.2634103,-4.7772703,9.8937235,0.27855435,-0.47830713,-0.51236284,7.6875005,17.8125,-32.475002,watch_1
15648217625905,1.2634103,-4.7772703,9.8937235,0.21258095,-0.5711586,-0.5319105,7.6875005,17.8125,-32.475002,watch_1
15648239357676,1.2634103,-4.7772703,9.8937235,0.21258095,-0.5711586,-0.5319105,9.525001,18.50625,-34.21875,watch_1
15648249357624,1.2634103,-4.7772703,9.8937235,0.21258095,-0.5711586,-0.5319105,7.0312505,18.73125,-33.375,watch_1
15648236668874,1.564906,-5.227121,9.027522,-0.09773836,-0.64812756,-0.5526799,7.0312505,18.73125,-33.375,watch_1
15648241631634,1.564906,-5.227121,9.027522,-0.09773836,-0.64812756,-0.5526799,7.0312505,18.73125,-33.375,watch_1
15648259357572,1.564906,-5.227121,9.027522,-0.09773836,-0.64812756,-0.5526799,6.9375005,17.7,-32.550003,watch_1
15648269357520,1.564906,-5.227121,9.027522,-0.09773836,-0.64812756,-0.5526799,7.6875005,17.8125,-33.206253,watch_1
15648260704655,1.4261223,-5.3946185,8.295318,-0.09773836,-0.64812756,-0.5526799,7.6875005,17.8125,-33.206253,watch_1
15648255741895,1.4261223,-5.3946185,8.295318,-0.27366742,-0.618806,-0.5648972,7.6875005,17.8125,-33.206253,watch_1
15648279357468,1.4261223,-5.3946185,8.295318,-0.27366742,-0.618806,-0.5648972,6.2812505,18.9375,-34.78125,watch_1
15648289357416,1.4261223,-5.3946185,8.295318,-0.27366742,-0.618806,-0.5648972,4.4437504,19.837502,-34.65,watch_1
15648279778666,0.66041905,-5.456832,7.443473,-0.34941465,-0.42577276,-0.56367546,4.4437504,19.837502,-34.65,watch_1
15648274815905,0.66041905,-5.456832,7.443473,-0.34941465,-0.42577276,-0.56367546,4.4437504,19.837502,-34.65,watch_1
15648299357364,0.66041905,-5.456832,7.443473,-0.34941465,-0.42577276,-0.56367546,5.4187503,18.956251,-33.7125,watch_1
15648298851634,1.5314065,-5.1218367,7.859824,-0.3848448,-0.5051852,-0.61132294,7.4625,19.743752,-32.4,watch_1
15648293888874,1.5314065,-5.1218367,7.859824,-0.3848448,-0.5051852,-0.61132294,7.4625,19.743752,-32.4,watch_1
15648309357311,1.5314065,-5.1218367,7.859824,-0.3848448,-0.5051852,-0.61132294,7.4625,19.743752,-32.4,watch_1
15648319357259,1.5314065,-5.1218367,7.859824,-0.3848448,-0.5051852,-0.61132294,5.11875,18.900002,-33.46875,watch_1
15648312962884,1.5314065,-5.1218367,7.859824,0.08307761,-0.45387253,-0.5807797,4.4812503,20.2875,-35.7,watch_1
15648329357207,1.5314065,-5.1218367,7.859824,0.08307761,-0.45387253,-0.5807797,4.4812503,20.2875,-35.7,watch_1
15648317925645,1.2729816,-5.117051,8.118249,0.08307761,-0.45387253,-0.5807797,4.4812503,20.2875,-35.7,watch_1
15648339357155,1.2729816,-5.117051,8.118249,0.08307761,-0.45387253,-0.5807797,4.6687503,20.41875,-34.0875,watch_1
15648336998666,1.5026926,-4.1312084,7.9746795,0.14660755,-0.40378162,-0.61132294,4.6687503,20.41875,-34.0875,watch_1
15648332035905,1.5026926,-4.1312084,7.9746795,0.14660755,-0.40378162,-0.61132294,4.6687503,20.41875,-34.0875,watch_1
15648349357103,1.5026926,-4.1312084,7.9746795,0.14660755,-0.40378162,-0.61132294,5.6625004,19.837502,-33.91875,watch_1
15648359357051,1.5026926,-4.1312084,7.9746795,0.14660755,-0.40378162,-0.61132294,5.86875,18.993752,-32.943752,watch_1
15648356072676,1.9764715,-3.9110687,7.548757,-0.05253437,-0.32559094,-0.55878854,3.825,19.462502,-33.956253,watch_1
15648351109916,1.9764715,-3.9110687,7.548757,-0.05253437,-0.32559094,-0.55878854,3.825,19.462502,-33.956253,watch_1
15648369356999,1.9764715,-3.9110687,7.548757,-0.05253437,-0.32559094,-0.55878854,3.825,19.462502,-33.956253,watch_1
15648379356947,1.9764715,-3.9110687,7.548757,-0.05253437,-0.32559094,-0.55878854,4.33125,19.931252,-33.506252,watch_1
15648375145645,2.143969,-3.891926,7.481758,-0.30298892,-0.19486587,-0.5050325,4.33125,19.931252,-33.506252,watch_1
15648370182884,2.143969,-3.891926,7.481758,-0.30298892,-0.19486587,-0.5050325,4.33125,19.931252,-33.506252,watch_1
15648389356895,2.143969,-3.891926,7.481758,-0.30298892,-0.19486587,-0.5050325,4.125,20.90625,-33.91875,watch_1
15648399356843,2.143969,-3.891926,7.481758,-0.30298892,-0.19486587,-0.5050325,3.825,21.956251,-32.30625,watch_1
15648389256895,2.143969,-3.891926,7.481758,-0.44348782,-0.059253883,-0.44761115,3.825,21.956251,-32.30625,watch_1
15648394219655,2.105684,-4.1072803,7.4626155,-0.44348782,-0.059253883,-0.44761115,2.4375,20.550001,-33.91875,watch_1
15648409356791,2.105684,-4.1072803,7.4626155,-0.44348782,-0.059253883,-0.44761115,2.4375,20.550001,-33.91875,watch_1
15648419356739,2.105684,-4.1072803,7.4626155,-0.44348782,-0.059253883,-0.44761115,3.3750002,20.475,-31.931252,watch_1
15648408329916,2.105684,-4.1072803,7.4626155,-0.27000225,0.018936807,-0.3901899,3.3750002,20.475,-31.931252,watch_1
15648429356686,2.158326,-4.341777,7.6540413,-0.27000225,0.018936807,-0.3901899,2.68125,22.556252,-33.65625,watch_1
15648413292676,2.158326,-4.341777,7.6540413,-0.27000225,0.018936807,-0.3901899,2.68125,22.556252,-33.65625,watch_1
15648439356634,2.158326,-4.341777,7.6540413,-0.27000225,0.018936807,-0.3901899,3.15,20.0625,-33.075,watch_1
15648432335645,2.1678972,-4.1407795,8.213962,0.08552107,0.09590577,-0.30100363,3.15,20.0625,-33.075,watch_1
15648427372884,2.1678972,-4.1407795,8.213962,0.08552107,0.09590577,-0.30100363,3.15,20.0625,-33.075,watch_1
15648449356582,2.1678972,-4.1407795,8.213962,0.08552107,0.09590577,-0.30100363,4.2000003,20.212502,-33.693752,watch_1
15648459356530,2.1678972,-4.1407795,8.213962,0.08552107,0.09590577,-0.30100363,4.36875,20.38125,-34.125,watch_1
15648451409655,2.5698915,-3.5521452,8.280961,0.24434592,0.2131918,-0.2545779,4.36875,20.38125,-34.125,watch_1
15648446446895,2.5698915,-3.5521452,8.280961,0.24434592,0.2131918,-0.2545779,4.36875,20.38125,-34.125,watch_1
15648469356478,2.5698915,-3.5521452,8.280961,0.24434592,0.2131918,-0.2545779,3.9750001,20.71875,-33.037502,watch_1
15648479356426,2.5698915,-3.5521452,8.280961,0.24434592,0.2131918,-0.2545779,4.2375,20.475,-33.28125,watch_1
15648470482676,2.928815,-3.178865,7.414759,0.24434592,0.2131918,-0.2545779,4.2375,20.475,-33.28125,watch_1
15648465519916,2.928815,-3.178865,7.414759,0.2602284,0.37201664,-0.21303909,4.2375,20.475,-33.28125,watch_1
15648489356374,2.928815,-3.178865,7.414759,0.2602284,0.37201664,-0.21303909,3.4875002,20.38125,-33.35625,watch_1
15648484593874,2.928815,-3.178865,7.414759,0.54489136,0.52839804,-0.11041381,4.8187504,21.712502,-33.91875,watch_1
15648499356322,2.928815,-3.178865,7.414759,0.54489136,0.52839804,-0.11041381,4.8187504,21.712502,-33.91875,watch_1
15648489556634,2.8809586,-3.394219,6.7495546,0.54489136,0.52839804,-0.11041381,4.8187504,21.712502,-33.91875,watch_1
15648509356270,2.8809586,-3.394219,6.7495546,0.54489136,0.52839804,-0.11041381,4.8,18.862501,-33.487503,watch_1
15648508629655,2.321038,-3.5856447,7.663613,1.242499,0.6994402,-0.017562363,4.8,18.862501,-33.487503,watch_1
15648519356218,2.321038,-3.5856447,7.663613,1.242499,0.6994402,-0.017562363,4.9125004,18.46875,-33.881252,watch_1
15648503666895,2.321038,-3.5856447,7.663613,1.242499,0.6994402,-0.017562363,4.8,18.862501,-33.487503,watch_1
15648529356166,2.321038,-3.5856447,7.663613,1.242499,0.6994402,-0.017562363,5.11875,16.6875,-35.568752,watch_1
15648522740905,2.321038,-3.5856447,7.663613,1.9645411,0.8362739,0.052076224,5.11875,16.6875,-35.568752,watch_1
15648527703666,2.115255,-2.528017,9.415159,1.9645411,0.8362739,0.052076224,4.9500003,17.643751,-34.95,watch_1
15648539356114,2.115255,-2.528017,9.415159,1.9645411,0.8362739,0.052076224,4.9500003,17.643751,-34.95,watch_1
15648549356061,2.115255,-2.528017,9.415159,1.9645411,0.8362739,0.052076224,7.65,16.275002,-33.9375,watch_1
15648546776634,1.9477576,-1.0348958,10.750354,1.9792019,0.92301667,0.031306818,7.65,16.275002,-33.9375,watch_1
15648541813874,1.9477576,-1.0348958,10.750354,1.9792019,0.92301667,0.031306818,7.65,16.275002,-33.9375,watch_1
15648559356009,1.9477576,-1.0348958,10.750354,1.9792019,0.92301667,0.031306818,6.0375004,15.056251,-33.2625,watch_1
15648569355957,1.9477576,-1.0348958,10.750354,1.9792019,0.92301667,0.031306818,6.7312503,12.993751,-31.81875,watch_1
15648565850645,1.8520447,-0.17347965,11.4394865,1.9792019,0.92301667,0.031306818,6.7312503,12.993751,-31.81875,watch_1
15648560887884,1.8520447,-0.17347965,11.4394865,1.3206897,0.8778127,0.020311253,6.7312503,12.993751,-31.81875,watch_1
15648579355905,1.8520447,-0.17347965,11.4394865,1.3206897,0.8778127,0.020311253,9.0375,13.743751,-32.79375,watch_1
15648589355853,1.8520447,-0.17347965,11.4394865,1.3206897,0.8778127,0.020311253,7.275,14.400001,-34.518753,watch_1
15648579960905,1.7898313,-0.6233303,11.39163,0.66095567,0.7959568,0.087506376,7.275,14.400001,-34.518753,watch_1
15648584923666,1.7898313,-0.6233303,11.39163,0.66095567,0.7959568,0.087506376,7.275,14.400001,-34.518753,watch_1
15648599355801,1.7898313,-0.6233303,11.39163,0.66095567,0.7959568,0.087506376,7.8187504,15.337501,-35.11875,watch_1
15648609355749,1.7898313,-0.6233303,11.39163,0.66095567,0.7959568,0.087506376,7.18125,16.556252,-36.91875,watch_1
15648603997676,1.6175481,-1.6331015,10.9992075,0.66095567,0.7959568,0.087506376,7.18125,16.556252,-36.91875,watch_1
15648599034916,1.6175481,-1.6331015,10.9992075,0.47769627,0.7519745,0.1669188,7.18125,16.556252,-36.91875,watch_1
15648619355697,1.6175481,-1.6331015,10.9992075,0.47769627,0.7519745,0.1669188,6.0375004,14.2875,-36.675003,watch_1
15648629355645,1.6175481,-1.6331015,10.9992075,0.47769627,0.7519745,0.1669188,8.94375,16.21875,-36.675003,watch_1
15648623040645,0.9810573,-2.5806592,11.047064,0.47769627,0.7519745,0.1669188,8.94375,16.21875,-36.675003,watch_1
15648618077884,0.9810573,-2.5806592,11.047064,0.65973395,0.7470876,0.21090107,8.94375,16.21875,-36.675003,watch_1
15648639355593,0.9810573,-2.5806592,11.047064,0.65973395,0.7470876,0.21090107,8.6625,13.8,-37.5,watch_1
15648649355541,0.9810573,-2.5806592,11.047064,0.65973395,0.7470876,0.21090107,9.6,12.937501,-37.74375,watch_1
15648642113666,0.5168497,-2.1690936,11.4394865,0.65973395,0.7470876,0.21090107,9.6,12.937501,-37.74375,watch_1
15648637150905,0.5168497,-2.1690936,11.4394865,0.81122845,0.75930494,0.2328922,9.6,12.937501,-37.74375,watch_1
15648659355489,0.5168497,-2.1690936,11.4394865,0.81122845,0.75930494,0.2328922,8.493751,13.63125,-37.068752,watch_1
15648669355436,0.5168497,-2.1690936,11.4394865,0.81122845,0.75930494,0.2328922,8.775001,12.262501,-37.7625,watch_1
15648661187676,0.35413775,-1.5565311,12.243475,0.81122845,0.75930494,0.2328922,8.775001,12.262501,-37.7625,watch_1
15648656224916,0.35413775,-1.5565311,12.243475,0.7147118,0.71410096,0.27687445,8.775001,12.262501,-37.7625,watch_1
15648679355384,0.35413775,-1.5565311,12.243475,0.7147118,0.71410096,0.27687445,9.9375,14.531251,-36.975002,watch_1
15648689355332,0.35413775,-1.5565311,12.243475,0.7147118,0.71410096,0.27687445,9.69375,12.20625,-36.05625,watch_1
15648680260645,0.30149564,-1.2933207,12.693326,0.42027497,0.5931497,0.33918267,9.69375,12.20625,-36.05625,watch_1
15648675297884,0.30149564,-1.2933207,12.693326,0.42027497,0.5931497,0.33918267,9.69375,12.20625,-36.05625,watch_1
15648699355280,0.30149564,-1.2933207,12.693326,0.42027497,0.5931497,0.33918267,11.868751,14.175,-35.568752,watch_1
15648709355228,0.30149564,-1.2933207,12.693326,0.42027497,0.5931497,0.33918267,10.106251,15.000001,-38.456253,watch_1
15648699334655,0.2440679,-1.1641082,12.669397,0.42027497,0.5931497,0.33918267,10.106251,15.000001,-38.456253,watch_1
15648694371895,0.2440679,-1.1641082,12.669397,0.10262528,0.46853328,0.42592546,10.106251,15.000001,-38.456253,watch_1
15648719355176,0.2440679,-1.1641082,12.669397,0.10262528,0.46853328,0.42592546,11.606251,12.993751,-34.612503,watch_1
15648713444916,0.2440679,-1.1641082,12.669397,-0.092851445,0.34269515,0.56153744,11.606251,12.993751,-34.612503,watch_1
15648729355124,0.17706887,-1.288535,12.458829,-0.092851445,0.34269515,0.56153744,11.25,13.012501,-37.987503,watch_1
15648718407676,0.17706887,-1.288535,12.458829,-0.092851445,0.34269515,0.56153744,11.25,13.012501,-37.987503,watch_1
15648739355072,0.17706887,-1.288535,12.458829,-0.092851445,0.34269515,0.56153744,8.887501,13.25625,-37.40625,watch_1
15648732518874,0.17706887,-1.288535,12.458829,-0.14782928,0.23396121,0.708145,8.887501,13.25625,-37.40625,watch_1
15648737481634,0.4642076,-0.8913264,11.65484,-0.14782928,0.23396121,0.708145,11.793751,15.056251,-37.10625,watch_1
15648749355020,0.4642076,-0.8913264,11.65484,-0.14782928,0.23396121,0.708145,11.793751,15.056251,-37.10625,watch_1
15648759354968,0.4642076,-0.8913264,11.65484,-0.14782928,0.23396121,0.708145,10.40625,13.462501,-37.256252,watch_1
15648751591895,0.4642076,-0.8913264,11.65484,-0.26267186,0.22418737,0.8278745,10.40625,13.462501,-37.256252,watch_1
15648756554655,0.57427746,-0.90089774,11.090135,-0.26267186,0.22418737,0.8278745,10.40625,13.462501,-37.256252,watch_1
15648769354916,0.57427746,-0.90089774,11.090135,-0.26267186,0.22418737,0.8278745,11.868751,15.750001,-36.581253,watch_1
15648779354864,0.57427746,-0.90089774,11.090135,-0.26267186,0.22418737,0.8278745,10.481251,15.281251,-35.98125,watch_1
15648775628666,-0.61734825,-2.288735,12.377473,-0.8136719,0.20219624,0.8205441,10.481251,15.281251,-35.98125,watch_1
15648770665905,-0.61734825,-2.288735,12.377473,-0.8136719,0.20219624,0.8205441,10.481251,15.281251,-35.98125,watch_1
15648789354811,-0.61734825,-2.288735,12.377473,-0.8136719,0.20219624,0.8205441,13.387501,17.23125,-36.5625,watch_1
15648799354759,-0.61734825,-2.288735,12.377473,-0.8136719,0.20219624,0.8205441,12.918751,17.00625,-36.300003,watch_1
15648794701634,-0.16749759,-3.7100716,12.267404,-0.8136719,0.20219624,0.8205441,12.918751,17.00625,-36.300003,watch_1
15648789738874,-0.16749759,-3.7100716,12.267404,-1.2913681,-0.053145237,0.75212723,12.918751,17.00625,-36.300003,watch_1
15648809354707,-0.16749759,-3.7100716,12.267404,-1.2913681,-0.053145237,0.75212723,12.675,15.806251,-34.03125,watch_1
15648819354655,-0.16749759,-3.7100716,12.267404,-1.2913681,-0.053145237,0.75212723,13.425,17.175001,-34.0875,watch_1
15648813744655,0.6556334,-3.6478581,12.468401,-1.1838559,-0.19486587,0.8804089,13.425,17.175001,-34.0875,watch_1
15648808781895,0.6556334,-3.6478581,12.468401,-1.1838559,-0.19486587,0.8804089,13.425,17.175001,-34.0875,watch_1
15648829354603,0.6556334,-3.6478581,12.468401,-1.1838559,-0.19486587,0.8804089,11.34375,17.6625,-36.112503,watch_1
15648839354551,0.6556334,-3.6478581,12.468401,-1.1838559,-0.19486587,0.8804089,11.868751,16.85625,-35.100002,watch_1
15648832817676,0.5072784,-4.3848476,12.860824,-1.0005965,-0.32192573,0.9427171,11.868751,16.85625,-35.100002,watch_1
15648827854916,0.5072784,-4.3848476,12.860824,-1.0005965,-0.32192573,0.9427171,11.868751,16.85625,-35.100002,watch_1
15648849354499,0.5072784,-4.3848476,12.860824,-1.0005965,-0.32192573,0.9427171,12.750001,19.368752,-34.95,watch_1
15648859354447,0.5072784,-4.3848476,12.860824,-1.0005965,-0.32192573,0.9427171,12.0375,16.706251,-33.9,watch_1
15648851891634,0.6652047,-3.8536408,12.396616,-1.0005965,-0.32192573,0.9427171,12.0375,16.706251,-33.9,watch_1
15648846928874,0.6652047,-3.8536408,12.396616,-0.7403681,-0.48441577,0.8779654,11.625,18.487501,-33.975002,watch_1
15648869354395,0.6652047,-3.8536408,12.396616,-0.7403681,-0.48441577,0.8779654,11.625,18.487501,-33.975002,watch_1
15648879354343,0.6652047,-3.8536408,12.396616,-0.7403681,-0.48441577,0.8779654,13.293751,16.95,-31.612501,watch_1
15648870964655,1.1437693,-3.6000016,12.114263,-0.31276277,-0.64324063,0.97203857,13.293751,16.95,-31.612501,watch_1
15648866001895,1.1437693,-3.6000016,12.114263,-0.31276277,-0.64324063,0.97203857,13.293751,16.95,-31.612501,watch_1
15648889354291,1.1437693,-3.6000016,12.114263,-0.31276277,-0.64324063,0.97203857,12.01875,16.40625,-33.15,watch_1
15648899354239,1.1437693,-3.6000016,12.114263,-0.31276277,-0.64324063,0.97203857,13.200001,17.85,-33.881252,watch_1
15648885075905,1.3686945,-3.269792,12.061621,-0.04886918,-0.70799226,1.0257946,13.200001,17.85,-33.881252,watch_1
15648890038666,1.3686945,-3.269792,12.061621,-0.04886918,-0.70799226,1.0257946,13.200001,17.85,-33.881252,watch_1
15648909354186,1.3686945,-3.269792,12.061621,-0.04886918,-0.70799226,1.0257946,13.087501,19.5375,-34.068752,watch_1
15648909111634,1.3734802,-3.5186458,12.061621,0.16371176,-0.76052666,1.096655,13.087501,19.5375,-34.068752,watch_1
15648904148874,1.3734802,-3.5186458,12.061621,0.16371176,-0.76052666,1.096655,13.087501,19.5375,-34.068752,watch_1
15648919354134,1.3734802,-3.5186458,12.061621,0.16371176,-0.76052666,1.096655,12.13125,17.737501,-35.006252,watch_1
15648929354082,1.3734802,-3.5186458,12.061621,0.16371176,-0.76052666,1.096655,13.425,18.768751,-35.831253,watch_1
15648923222884,1.3974084,-3.92064,12.257833,0.3188714,-0.8338304,1.2017237,12.225,18.431252,-34.050003,watch_1
15648939354030,1.3974084,-3.92064,12.257833,0.3188714,-0.8338304,1.2017237,12.225,18.431252,-34.050003,watch_1
15648928185645,1.3974084,-3.92064,12.257833,0.3188714,-0.8338304,1.2017237,12.225,18.431252,-34.050003,watch_1
15648949353978,1.3974084,-3.92064,12.257833,0.3188714,-0.8338304,1.2017237,13.087501,18.431252,-35.550003,watch_1
15648947258666,1.550549,-4.418347,12.631112,0.48869184,-0.9364557,1.2823579,13.087501,18.431252,-35.550003,watch_1
15648942295905,1.550549,-4.418347,12.631112,0.48869184,-0.9364557,1.2823579,13.087501,18.431252,-35.550003,watch_1
15648959353926,1.550549,-4.418347,12.631112,0.48869184,-0.9364557,1.2823579,13.087501,18.431252,-35.550003,watch_1
15648969353874,1.550549,-4.418347,12.631112,0.48869184,-0.9364557,1.2823579,11.94375,17.587502,-35.8875,watch_1
15648966332676,1.6797615,-4.62413,13.382459,0.48869184,-0.9364557,1.2823579,11.94375,17.587502,-35.8875,watch_1
15648961369916,1.6797615,-4.62413,13.382459,0.69272065,-1.1343759,1.3483313,11.94375,17.587502,-35.8875,watch_1
15648979353822,1.6797615,-4.62413,13.382459,0.69272065,-1.1343759,1.3483313,13.087501,17.175001,-35.86875,watch_1
15648989353770,1.6797615,-4.62413,13.382459,0.69272065,-1.1343759,1.3483313,12.225,14.962501,-36.9,watch_1
15648985405645,1.8281165,-4.4374895,13.411173,0.86987144,-1.4544691,1.439961,12.225,14.962501,-36.9,watch_1
15648980442884,1.8281165,-4.4374895,13.411173,0.86987144,-1.4544691,1.439961,12.225,14.962501,-36.9,watch_1
15648999353718,1.8281165,-4.4374895,13.411173,0.86987144,-1.4544691,1.439961,11.8125,15.01875,-35.79375,watch_1
15649009353666,1.8281165,-4.4374895,13.411173,0.86987144,-1.4544691,1.439961,11.8125,15.01875,-35.79375,watch_1
15649004448666,2.0003998,-3.9445682,12.779468,0.9431752,-1.7989968,1.5767947,11.8125,15.01875,-35.79375,watch_1
15648999485905,2.0003998,-3.9445682,12.779468,0.9431752,-1.7989968,1.5767947,11.8125,15.01875,-35.79375,watch_1
15649019353614,2.0003998,-3.9445682,12.779468,0.9431752,-1.7989968,1.5767947,11.71875,15.58125,-36.0,watch_1
15649029353561,2.0003998,-3.9445682,12.779468,0.9431752,-1.7989968,1.5767947,10.5375,14.75625,-37.800003,watch_1
15649018559916,2.0003998,-3.9445682,12.779468,0.87231493,-2.0726643,1.7307327,10.5375,14.75625,-37.800003,watch_1
15649023522676,1.7850457,-3.8344984,11.975479,0.87231493,-2.0726643,1.7307327,10.5375,14.75625,-37.800003,watch_1
15649039353509,1.7850457,-3.8344984,11.975479,0.87231493,-2.0726643,1.7307327,10.650001,14.343751,-37.893753,watch_1
15649049353457,1.7850457,-3.8344984,11.975479,0.87231493,-2.0726643,1.7307327,10.59375,13.931251,-38.15625,watch_1
15649042595645,1.5696917,-4.2652063,11.530415,0.6878337,-2.3194535,1.8639011,10.59375,13.931251,-38.15625,watch_1
15649037632884,1.5696917,-4.2652063,11.530415,0.6878337,-2.3194535,1.8639011,10.59375,13.931251,-38.15625,watch_1
15649059353405,1.5696917,-4.2652063,11.530415,0.6878337,-2.3194535,1.8639011,9.675,13.668751,-38.081253,watch_1
15649069353353,1.5696917,-4.2652063,11.530415,0.6878337,-2.3194535,1.8639011,8.400001,13.087501,-39.05625,watch_1
15649061669655,1.6558332,-4.5188456,10.563714,0.6878337,-2.3194535,1.8639011,8.400001,13.087501,-39.05625,watch_1
15649056706895,1.6558332,-4.5188456,10.563714,0.39950556,-2.5735734,1.9628613,8.400001,13.087501,-39.05625,watch_1
15649079353301,1.6558332,-4.5188456,10.563714,0.39950556,-2.5735734,1.9628613,11.2875,11.868751,-36.99375,watch_1
15649080742676,1.5601203,-5.0309095,9.041879,0.39950556,-2.5735734,1.9628613,7.4437504,11.26875,-38.98125,watch_1
15649089353249,1.5601203,-5.0309095,9.041879,0.39950556,-2.5735734,1.9628613,7.4437504,11.26875,-38.98125,watch_1
15649075779916,1.5601203,-5.0309095,9.041879,0.16982041,-2.764163,2.0044,7.4437504,11.26875,-38.98125,watch_1
15649099353197,1.5601203,-5.0309095,9.041879,0.16982041,-2.764163,2.0044,8.681251,12.675,-37.237503,watch_1
15649109353145,1.5601203,-5.0309095,9.041879,0.16982041,-2.764163,2.0044,8.493751,12.525001,-38.11875,watch_1
15649094853874,0.6843473,-5.581259,7.740183,-0.028099779,-2.8728971,2.0239477,7.2000003,13.06875,-38.60625,watch_1
15649119353093,0.6843473,-5.581259,7.740183,-0.028099779,-2.8728971,2.0239477,7.2000003,13.06875,-38.60625,watch_1
15649099816634,0.6843473,-5.581259,7.740183,-0.028099779,-2.8728971,2.0239477,7.2000003,13.06875,-38.60625,watch_1
15649129353041,-0.2009971,-6.413961,7.05105,-0.24923283,-2.9608617,1.9738568,6.4875,10.556251,-37.85625,watch_1
15649113926895,-0.2009971,-6.413961,7.05105,-0.24923283,-2.9608617,1.9738568,6.4875,10.556251,-37.85625,watch_1
15649118889655,-0.2009971,-6.413961,7.05105,-0.24923283,-2.9608617,1.9738568,6.4875,10.556251,-37.85625,watch_1
15649149352936,-0.94277215,-7.1222367,6.409774,-0.57665634,-3.0683737,1.7857105,5.3250003,10.200001,-34.7625,watch_1
15649139352989,-0.94277215,-7.1222367,6.409774,-0.57665634,-3.0683737,1.7857105,5.3250003,10.200001,-34.7625,watch_1
15649152073874,-0.94277215,-7.1222367,6.409774,-0.9285145,-3.1771078,1.4863868,5.3250003,10.200001,-34.7625,watch_1
15649133000905,-0.94277215,-7.1222367,6.409774,-0.9285145,-3.1771078,1.4863868,5.3250003,10.200001,-34.7625,watch_1
15649159352884,-0.94277215,-7.1222367,6.409774,-0.9285145,-3.1771078,1.4863868,5.3250003,10.200001,-34.7625,watch_1
15649169352832,-1.2442678,-6.9499536,5.2899327,-0.9285145,-3.1771078,1.4863868,4.8375,9.675,-32.86875,watch_1
15649137963666,-1.2442678,-6.9499536,5.2899327,-0.9285145,-3.1771078,1.4863868,2.2125,11.606251,-33.65625,watch_1
15649179352780,-0.67477596,-6.4618177,4.026522,-0.9285145,-3.1771078,1.4863868,2.2125,11.606251,-33.65625,watch_1
15649176110645,-0.67477596,-6.4618177,4.026522,-0.9285145,-3.1771078,1.4863868,2.2125,11.606251,-33.65625,watch_1
15649157036634,-0.67477596,-6.4618177,4.026522,-0.9285145,-3.1771078,1.4863868,2.2125,11.606251,-33.65625,watch_1
15649171147884,-0.67477596,-6.4618177,4.026522,-1.2522728,-3.239416,1.2261584,1.5562501,12.187501,-32.193752,watch_1
15649189352728,-0.67477596,-6.4618177,4.026522,-1.2522728,-3.239416,1.2261584,-0.45000002,11.8125,-33.2625,watch_1
15649199352676,-0.67477596,-6.4618177,4.026522,-1.2522728,-3.239416,1.2261584,-0.45000002,11.8125,-33.2625,watch_1
15649195153666,0.047856454,-6.7585278,2.8731818,-1.7055345,-3.0598216,0.95126915,-0.45000002,11.8125,-33.2625,watch_1
15649190190905,0.047856454,-6.7585278,2.8731818,-1.7055345,-3.0598216,0.95126915,-0.45000002,11.8125,-33.2625,watch_1
15649209352624,0.047856454,-6.7585278,2.8731818,-1.7055345,-3.0598216,0.95126915,-0.61875004,11.475,-31.931252,watch_1
15649219352572,0.047856454,-6.7585278,2.8731818,-1.7055345,-3.0598216,0.95126915,-0.16875,12.4875,-30.093752,watch_1
15649214226634,1.1389836,-7.1509504,2.4424736,-2.0757184,-2.6590943,0.56398094,-0.16875,12.4875,-30.093752,watch_1
15649209263874,1.1389836,-7.1509504,2.4424736,-2.0757184,-2.6590943,0.56398094,-0.16875,12.4875,-30.093752,watch_1
15649229352520,1.1389836,-7.1509504,2.4424736,-2.0757184,-2.6590943,0.56398094,-2.1000001,14.26875,-32.381252,watch_1
15649239352468,1.1389836,-7.1509504,2.4424736,-2.0757184,-2.6590943,0.56398094,-2.0062501,17.962502,-33.16875,watch_1
15649233300645,1.6606189,-7.29452,3.0646076,-2.0757184,-2.6590943,0.56398094,-2.0062501,17.962502,-33.16875,watch_1
15649228337884,1.6606189,-7.29452,3.0646076,-2.1441355,-2.2559237,0.12171481,-2.0062501,17.962502,-33.16875,watch_1
15649249352416,1.6606189,-7.29452,3.0646076,-2.1441355,-2.2559237,0.12171481,-3.3937502,17.175001,-30.91875,watch_1
15649259352364,1.6606189,-7.29452,3.0646076,-2.1441355,-2.2559237,0.12171481,-1.5562501,20.550001,-32.49375,watch_1
15649252373666,1.7850457,-6.0981083,3.7393837,-2.1441355,-2.2559237,0.12171481,-1.5562501,20.550001,-32.49375,watch_1
15649247410905,1.7850457,-6.0981083,3.7393837,-2.1563528,-1.9492695,-0.37308568,-1.5562501,20.550001,-32.49375,watch_1
15649269352311,1.7850457,-6.0981083,3.7393837,-2.1563528,-1.9492695,-0.37308568,-5.0062504,18.956251,-31.575,watch_1
15649279352259,1.7850457,-6.0981083,3.7393837,-2.1563528,-1.9492695,-0.37308568,-6.8437505,19.368752,-28.9125,watch_1
15649271447676,2.306681,-5.1218367,3.5144582,-2.1563528,-1.9492695,-0.37308568,-6.8437505,19.368752,-28.9125,watch_1
15649266484916,2.306681,-5.1218367,3.5144582,-2.3457208,-1.7061453,-0.67729634,-6.8437505,19.368752,-28.9125,watch_1
15649289352207,2.306681,-5.1218367,3.5144582,-2.3457208,-1.7061453,-0.67729634,-5.5125003,20.831251,-29.493752,watch_1
15649299352155,2.306681,-5.1218367,3.5144582,-2.4141376,-1.4349214,-0.7701478,-4.59375,20.2875,-25.706251,watch_1
15649290520645,3.0149565,-6.634101,3.6484563,-2.4141376,-1.4349214,-0.7701478,-4.59375,20.2875,-25.706251,watch_1
15649285557884,2.306681,-5.1218367,3.5144582,-2.4141376,-1.4349214,-0.7701478,-4.59375,20.2875,-25.706251,watch_1
15649309352103,3.0149565,-6.634101,3.6484563,-2.4141376,-1.4349214,-0.7701478,-6.1687503,19.987501,-27.73125,watch_1
15649319352051,3.0149565,-6.634101,3.6484563,-2.4141376,-1.4349214,-0.7701478,-8.493751,21.618752,-25.837502,watch_1
15649304631895,3.0149565,-6.634101,3.6484563,-1.8912374,-1.1991276,-0.8348994,-8.493751,21.618752,-25.837502,watch_1
15649329351999,4.0965123,-6.8542404,4.624728,-1.8912374,-1.1991276,-0.8348994,-9.375,21.65625,-25.800001,watch_1
15649309594655,4.0965123,-6.8542404,4.624728,-1.8912374,-1.1991276,-0.8348994,-9.375,21.65625,-25.800001,watch_1
15649328667676,4.421936,-5.365905,4.7970114,-1.3158027,-1.0293071,-0.8544471,-9.375,21.65625,-25.800001,watch_1
15649323704916,4.421936,-5.365905,4.7970114,-1.3158027,-1.0293071,-0.8544471,-9.01875,23.53125,-25.800001,watch_1
15649339351947,4.421936,-5.365905,4.7970114,-1.3158027,-1.0293071,-0.8544471,-9.01875,23.53125,-25.800001,watch_1
15649349351895,4.421936,-5.365905,4.7970114,-1.3158027,-1.0293071,-0.8544471,-11.25,22.25625,-25.931252,watch_1
15649359351843,4.421936,-5.365905,4.7970114,-0.99815303,-0.85459983,-0.80679965,-11.25,23.34375,-23.85,watch_1
15649342778874,4.421936,-5.365905,4.7970114,-0.99815303,-0.85459983,-0.80679965,-11.25,23.34375,-23.85,watch_1
15649347741634,4.881358,-4.336991,3.9451663,-0.99815303,-0.85459983,-0.80679965,-11.25,23.34375,-23.85,watch_1
15649369351791,4.881358,-4.336991,3.9451663,-0.99815303,-0.85459983,-0.80679965,-10.8,23.41875,-24.825,watch_1
15649361851895,5.1589255,-4.3992043,3.0789645,-0.62919074,-0.6517927,-0.72616553,-10.8,23.41875,-24.825,watch_1
15649366814655,5.1589255,-4.3992043,3.0789645,-0.62919074,-0.6517927,-0.72616553,-10.8,23.41875,-24.825,watch_1
15649379351739,5.1589255,-4.3992043,3.0789645,-0.62919074,-0.6517927,-0.72616553,-10.875,22.85625,-24.7875,watch_1
15649389351686,5.1589255,-4.3992043,3.0789645,-0.62919074,-0.6517927,-0.72616553,-12.075001,21.2625,-24.0375,watch_1
15649385857676,5.1206403,-4.901697,3.0502508,-0.118507765,-0.4807506,-0.6369792,-12.075001,21.2625,-24.0375,watch_1
15649380894916,5.1206403,-4.901697,3.0502508,-0.118507765,-0.4807506,-0.6369792,-12.075001,21.2625,-24.0375,watch_1
15649399351634,5.1206403,-4.901697,3.0502508,-0.118507765,-0.4807506,-0.6369792,-10.368751,21.91875,-24.6375,watch_1
15649409351582,5.1206403,-4.901697,3.0502508,-0.118507765,-0.4807506,-0.6369792,-11.64375,22.275002,-23.0625,watch_1
15649404930645,5.4173503,-4.8586264,3.9834516,0.37140578,-0.3830122,-0.5868883,-11.64375,22.275002,-23.0625,watch_1
15649399967884,5.4173503,-4.8586264,3.9834516,0.37140578,-0.3830122,-0.5868883,-11.64375,22.275002,-23.0625,watch_1
15649419351530,5.4173503,-4.8586264,3.9834516,0.37140578,-0.3830122,-0.5868883,-11.418751,23.19375,-24.581251,watch_1
15649429351478,5.4173503,-4.8586264,3.9834516,0.37140578,-0.3830122,-0.5868883,-11.64375,22.7625,-25.143751,watch_1
15649424004655,5.3503513,-4.456632,4.78744,0.37140578,-0.3830122,-0.5868883,-11.64375,22.7625,-25.143751,watch_1
15649419041895,5.3503513,-4.456632,4.78744,0.6365211,-0.36712974,-0.5905535,-11.64375,22.7625,-25.143751,watch_1
15649439351426,5.3503513,-4.456632,4.78744,0.6365211,-0.36712974,-0.5905535,-12.7875,21.6,-24.45,watch_1
15649449351374,5.3503513,-4.456632,4.78744,0.6365211,-0.36712974,-0.5905535,-11.887501,21.88125,-25.237501,watch_1
15649438114916,5.072784,-4.145565,4.892724,0.5668825,-0.38545567,-0.62598366,-11.887501,21.88125,-25.237501,watch_1
15649443077676,5.072784,-4.145565,4.892724,0.5668825,-0.38545567,-0.62598366,-11.887501,21.88125,-25.237501,watch_1
15649459351322,5.072784,-4.145565,4.892724,0.5668825,-0.38545567,-0.62598366,-12.76875,21.900002,-25.2,watch_1
15649469351270,5.072784,-4.145565,4.892724,0.5668825,-0.38545567,-0.62598366,-12.88125,22.331251,-25.687502,watch_1
15649457188874,4.9770713,-4.0594234,4.6342993,0.30665413,-0.41233373,-0.6675225,-12.88125,22.331251,-25.687502,watch_1
15649462151634,4.9770713,-4.0594234,4.6342993,0.30665413,-0.41233373,-0.6675225,-12.88125,22.331251,-25.687502,watch_1
15649479351218,4.9770713,-4.0594234,4.6342993,0.30665413,-0.41233373,-0.6675225,-12.01875,21.675001,-23.34375,watch_1
15649489351166,4.9770713,-4.0594234,4.6342993,0.30665413,-0.41233373,-0.6675225,-13.481251,22.06875,-24.281252,watch_1
15649481224655,4.867001,-4.193422,3.8350966,0.30665413,-0.41233373,-0.6675225,-13.481251,22.06875,-24.281252,watch_1
15649476261895,4.867001,-4.193422,3.8350966,0.15882485,-0.42210758,-0.72860897,-14.681251,22.5375,-26.643751,watch_1
15649499351114,4.867001,-4.193422,3.8350966,0.15882485,-0.42210758,-0.72860897,-14.681251,22.5375,-26.643751,watch_1
15649509351061,5.1349974,-3.8488553,3.1172497,0.15882485,-0.42210758,-0.72860897,-15.95625,21.46875,-24.50625,watch_1
15649500298666,5.1349974,-3.8488553,3.1172497,0.15882485,-0.42210758,-0.72860897,-15.95625,21.46875,-24.50625,watch_1
15649495335905,5.1349974,-3.8488553,3.1172497,0.25534147,-0.38423395,-0.7811433,-15.95625,21.46875,-24.50625,watch_1
15649519351009,5.1349974,-3.8488553,3.1172497,0.25534147,-0.38423395,-0.7811433,-14.625001,20.1,-25.087502,watch_1
15649519371634,5.0105705,-3.5330026,3.3613176,0.5009091,-0.29871288,-0.8251256,-14.56875,20.550001,-25.425001,watch_1
15649514408874,5.0105705,-3.5330026,3.3613176,0.5009091,-0.29871288,-0.8251256,-14.56875,20.550001,-25.425001,watch_1
15649529350957,5.0105705,-3.5330026,3.3613176,0.5009091,-0.29871288,-0.8251256,-14.56875,20.550001,-25.425001,watch_1
15649539350905,5.0105705,-3.5330026,3.3613176,0.5009091,-0.29871288,-0.8251256,-15.562501,19.85625,-25.893751,watch_1
15649538445645,4.938786,-3.121437,3.6580276,0.63407767,-0.25106543,-0.87643826,-15.562501,19.85625,-25.893751,watch_1
15649549350853,4.938786,-3.121437,3.6580276,0.63407767,-0.25106543,-0.87643826,-15.431251,20.85,-25.406252,watch_1
15649533482884,4.938786,-3.121437,3.6580276,0.63407767,-0.25106543,-0.87643826,-15.431251,20.85,-25.406252,watch_1
15649559350801,4.938786,-3.121437,3.6580276,0.63407767,-0.25106543,-0.87643826,-16.800001,17.98125,-24.975,watch_1
15649552555905,4.938786,-3.121437,3.6580276,0.5998692,-0.216857,-0.8788817,-16.800001,17.98125,-24.975,watch_1
15649557518666,5.656633,-2.6333013,4.4811587,0.5998692,-0.216857,-0.8788817,-16.931252,19.6875,-26.475,watch_1
15649569350749,5.656633,-2.6333013,4.4811587,0.5998692,-0.216857,-0.8788817,-16.931252,19.6875,-26.475,watch_1
15649579350697,5.656633,-2.6333013,4.4811587,0.5998692,-0.216857,-0.8788817,-17.19375,16.931252,-24.206251,watch_1
15649571598874,6.245267,-2.609373,4.7539406,0.3506364,-0.21197008,-0.7652609,-17.53125,18.1875,-25.518751,watch_1
15649576561634,6.245267,-2.609373,4.7539406,0.3506364,-0.21197008,-0.7652609,-17.53125,18.1875,-25.518751,watch_1
15649589350645,6.245267,-2.609373,4.7539406,0.3506364,-0.21197008,-0.7652609,-17.53125,18.1875,-25.518751,watch_1
15649599350593,6.245267,-2.609373,4.7539406,0.3506364,-0.21197008,-0.7652609,-16.03125,18.5625,-27.281252,watch_1
15649595635645,6.474978,-1.4847465,4.78744,0.080634154,-0.19486587,-0.5209149,-16.03125,18.5625,-27.281252,watch_1
15649590672884,6.474978,-1.4847465,4.78744,0.080634154,-0.19486587,-0.5209149,-16.03125,18.5625,-27.281252,watch_1
15649609350541,6.474978,-1.4847465,4.78744,0.080634154,-0.19486587,-0.5209149,-16.3875,17.79375,-26.5125,watch_1
15649619350489,6.474978,-1.4847465,4.78744,0.080634154,-0.19486587,-0.5209149,-17.79375,18.581251,-26.025002,watch_1
15649614708666,7.3842506,-0.86261255,4.916652,0.080634154,-0.19486587,-0.5209149,-17.79375,18.581251,-26.025002,watch_1
15649609745905,7.3842506,-0.86261255,4.916652,-0.17715079,-0.171653,-0.13607013,-17.79375,18.581251,-26.025002,watch_1
15649629350436,7.3842506,-0.86261255,4.916652,-0.17715079,-0.171653,-0.13607013,-16.25625,18.75,-24.562502,watch_1
15649639350384,7.3842506,-0.86261255,4.916652,-0.17715079,-0.171653,-0.13607013,-16.987501,19.10625,-25.687502,watch_1
15649628819916,7.623533,-1.7048861,4.1605206,-0.22357652,-0.17043127,0.26710063,-16.987501,19.10625,-25.687502,watch_1
15649633782676,7.623533,-1.7048861,4.1605206,-0.17715079,-0.171653,-0.13607013,-16.987501,19.10625,-25.687502,watch_1
15649649350332,7.623533,-1.7048861,4.1605206,-0.22357652,-0.17043127,0.26710063,-18.075,17.1,-24.750002,watch_1
15649659350280,7.623533,-1.7048861,4.1605206,-0.22357652,-0.17043127,0.26710063,-16.050001,19.368752,-25.462502,watch_1
15649647892884,7.125826,-2.2504497,3.586243,-0.13805544,-0.11300998,0.5603157,-16.050001,19.368752,-25.462502,watch_1
15649652855645,7.125826,-2.2504497,3.586243,-0.13805544,-0.11300998,0.5603157,-16.050001,19.368752,-25.462502,watch_1
15649669350228,7.125826,-2.2504497,3.586243,-0.13805544,-0.11300998,0.5603157,-17.212502,18.206251,-25.2,watch_1
15649679350176,7.125826,-2.2504497,3.586243,-0.13805544,-0.11300998,0.5603157,-17.04375,19.78125,-24.900002,watch_1
15649671929655,6.63769,-1.963311,3.949952,-0.19058982,-0.058032155,0.6849321,-17.04375,19.78125,-24.900002,watch_1
15649666966895,6.63769,-1.963311,3.949952,-0.19058982,-0.058032155,0.6849321,-17.04375,19.78125,-24.900002,watch_1
15649689350124,6.63769,-1.963311,3.949952,-0.19058982,-0.058032155,0.6849321,-16.181252,19.48125,-25.06875,watch_1
15649691002676,6.8339014,-1.7814565,4.4428735,-0.45937032,-0.08491021,0.7179188,-17.081251,19.181252,-23.831251,watch_1
15649686039916,6.8339014,-1.7814565,4.4428735,-0.45937032,-0.08491021,0.7179188,-17.081251,19.181252,-23.831251,watch_1
15649699350072,6.8339014,-1.7814565,4.4428735,-0.45937032,-0.08491021,0.7179188,-17.081251,19.181252,-23.831251,watch_1
15649709350020,6.8339014,-1.7814565,4.4428735,-0.45937032,-0.08491021,0.7179188,-16.612501,19.706251,-25.425001,watch_1
15649710076634,6.570691,-3.0209386,4.107878,-0.45937032,-0.08491021,0.7179188,-15.731251,19.3875,-24.712502,watch_1
15649719349968,6.570691,-3.0209386,4.107878,-0.45937032,-0.08491021,0.7179188,-15.731251,19.3875,-24.712502,watch_1
15649705113874,6.570691,-3.0209386,4.107878,-0.71349007,-0.13622284,0.798553,-15.731251,19.3875,-24.712502,watch_1
15649729349916,6.570691,-3.0209386,4.107878,-0.71349007,-0.13622284,0.798553,-16.087502,20.175001,-24.393751,watch_1
15649739349864,6.3361945,-3.7627137,3.815954,-0.71349007,-0.13622284,0.798553,-16.931252,20.475,-23.643751,watch_1
15649729149655,6.3361945,-3.7627137,3.815954,-0.71349007,-0.13622284,0.798553,-16.931252,20.475,-23.643751,watch_1
15649724186895,6.3361945,-3.7627137,3.815954,-0.6695078,-0.1753182,0.857196,-16.931252,20.475,-23.643751,watch_1
15649749349811,6.3361945,-3.7627137,3.815954,-0.6695078,-0.1753182,0.857196,-15.618751,21.806252,-24.487501,watch_1
15649743260905,6.3361945,-3.7627137,3.815954,-0.6328559,-0.16920954,0.8938479,-13.293751,23.475,-22.650002,watch_1
15649759349759,6.3361945,-3.7627137,3.815954,-0.6328559,-0.16920954,0.8938479,-13.293751,23.475,-22.650002,watch_1
15649748223666,6.5611196,-4.4805603,3.854239,-0.6328559,-0.16920954,0.8938479,-13.293751,23.475,-22.650002,watch_1
15649769349707,6.5611196,-4.4805603,3.854239,-0.6328559,-0.16920954,0.8938479,-14.512501,21.900002,-22.35,watch_1
15649779349655,6.5611196,-4.4805603,3.854239,-0.7648027,-0.12767074,0.8633047,-15.7875,19.725,-21.54375,watch_1
15649762333874,6.5611196,-4.4805603,3.854239,-0.7648027,-0.12767074,0.8633047,-15.7875,19.725,-21.54375,watch_1
15649767296634,6.6855464,-5.241478,4.0073795,-0.7648027,-0.12767074,0.8633047,-15.7875,19.725,-21.54375,watch_1
15649789349603,6.6855464,-5.241478,4.0073795,-0.7648027,-0.12767074,0.8633047,-14.531251,21.900002,-23.081251,watch_1
15649786339655,6.829116,-5.662615,3.8111682,-0.7648027,-0.12767074,0.8633047,-14.531251,21.900002,-23.081251,watch_1
15649799349551,6.829116,-5.662615,3.8111682,-0.87231493,-0.11423171,0.798553,-13.425,23.587502,-22.237501,watch_1
15649781376895,6.829116,-5.662615,3.8111682,-0.87231493,-0.11423171,0.798553,-13.425,23.587502,-22.237501,watch_1
15649809349499,6.829116,-5.662615,3.8111682,-0.87231493,-0.11423171,0.798553,-13.63125,24.562502,-22.35,watch_1
15649805413666,6.876972,-6.2033925,3.882953,-0.9749402,-0.13744457,0.7509055,-13.63125,24.562502,-22.35,watch_1
15649800450905,6.876972,-6.2033925,3.882953,-0.9749402,-0.13744457,0.7509055,-13.63125,24.562502,-22.35,watch_1
15649819349447,6.876972,-6.2033925,3.882953,-0.9749402,-0.13744457,0.7509055,-13.06875,23.8875,-20.925001,watch_1
15649829349395,6.876972,-6.2033925,3.882953,-0.9749402,-0.13744457,0.7509055,-14.175,23.475,-21.300001,watch_1
15649824486634,7.183254,-7.466803,3.758526,-1.0971131,-0.14477496,0.6788235,-14.175,23.475,-21.300001,watch_1
15649819523874,7.183254,-7.466803,3.758526,-1.0971131,-0.14477496,0.6788235,-14.175,23.475,-21.300001,watch_1
15649839349343,7.183254,-7.466803,3.758526,-1.0971131,-0.14477496,0.6788235,-14.00625,24.73125,-19.650002,watch_1
15649849349291,7.183254,-7.466803,3.758526,-1.0971131,-0.14477496,0.6788235,-11.606251,24.91875,-20.268751,watch_1
15649838597884,7.192825,-8.706285,3.3613176,-1.0189224,-0.10690133,0.55298537,-11.606251,24.91875,-20.268751,watch_1
15649843560645,7.192825,-8.706285,3.3613176,-1.0189224,-0.10690133,0.55298537,-11.606251,24.91875,-20.268751,watch_1
15649859349239,7.192825,-8.706285,3.3613176,-1.0189224,-0.10690133,0.55298537,-15.01875,23.75625,-19.96875,watch_1
15649869349186,7.192825,-8.706285,3.3613176,-1.0189224,-0.10690133,0.55298537,-12.0375,24.825,-19.29375,watch_1
15649862633666,7.135397,-9.15135,2.6913273,-0.75991577,-0.055588696,0.39538223,-12.0375,24.825,-19.29375,watch_1
15649857670905,7.135397,-9.15135,2.6913273,-0.75991577,-0.055588696,0.39538223,-12.0375,24.825,-19.29375,watch_1
15649879349134,7.135397,-9.15135,2.6913273,-0.75991577,-0.055588696,0.39538223,-13.275001,27.54375,-21.6,watch_1
15649889349082,7.135397,-9.15135,2.6913273,-0.75991577,-0.055588696,0.39538223,-11.85,24.975,-18.13125,watch_1
15649881707676,7.1545396,-9.017352,2.370689,-0.75991577,-0.055588696,0.39538223,-11.85,24.975,-18.13125,watch_1
15649876744916,7.1545396,-9.017352,2.370689,-0.44348782,0.025045456,0.24388777,-11.85,24.975,-18.13125,watch_1
15649899349030,7.1545396,-9.017352,2.370689,-0.44348782,0.025045456,0.24388777,-11.90625,26.1375,-20.1375,watch_1
15649909348978,6.771688,-8.629715,3.2703903,-0.44348782,0.025045456,0.24388777,-11.25,24.900002,-17.60625,watch_1
15649900780645,6.771688,-8.629715,3.2703903,-0.44348782,0.025045456,0.24388777,-11.25,24.900002,-17.60625,watch_1
15649895817884,6.771688,-8.629715,3.2703903,-0.20769402,0.10445788,0.093615025,-11.25,24.900002,-17.60625,watch_1
15649919348926,6.771688,-8.629715,3.2703903,-0.20769402,0.10445788,0.093615025,-14.212501,25.706251,-20.212502,watch_1
15649929348874,6.771688,-8.629715,3.2703903,-0.20769402,0.10445788,0.093615025,-12.431251,26.775002,-19.96875,watch_1
15649914891895,7.259824,-8.380861,3.4139597,-0.10873393,0.14355323,-0.08231403,-12.431251,26.775002,-19.96875,watch_1
15649919854655,7.259824,-8.380861,3.4139597,-0.10873393,0.14355323,-0.08231403,-12.431251,26.775002,-19.96875,watch_1
15649939348822,7.259824,-8.380861,3.4139597,-0.10873393,0.14355323,-0.08231403,-11.475,24.31875,-18.31875,watch_1
15649949348770,7.259824,-8.380861,3.4139597,-0.10873393,0.14355323,-0.08231403,-13.275001,24.525002,-19.25625,watch_1
15649933964916,7.776674,-8.251649,2.423331,0.07819069,0.1631009,-0.22647811,-13.275001,24.525002,-19.25625,watch_1
15649938927676,7.776674,-8.251649,2.423331,0.07819069,0.1631009,-0.22647811,-13.275001,24.525002,-19.25625,watch_1
15649959348718,7.776674,-8.251649,2.423331,0.07819069,0.1631009,-0.22647811,-12.450001,26.812502,-21.28125,watch_1
15649953038874,7.776674,-8.251649,2.423331,0.5082395,0.20952661,-0.34620762,-12.450001,26.812502,-21.28125,watch_1
15649969348666,7.925029,-8.323434,1.7246269,0.5082395,0.20952661,-0.34620762,-12.58125,25.48125,-19.85625,watch_1
15649958001634,7.925029,-8.323434,1.7246269,0.5082395,0.20952661,-0.34620762,-12.58125,25.48125,-19.85625,watch_1
15649979348614,7.925029,-8.323434,1.7246269,0.5082395,0.20952661,-0.34620762,-12.95625,24.88125,-20.2875,watch_1
15649977044655,7.8053875,-8.328219,3.5240295,0.94928384,0.24373505,-0.5196932,-12.95625,24.88125,-20.2875,watch_1
15649972081895,7.8053875,-8.328219,3.5240295,0.94928384,0.24373505,-0.5196932,-12.95625,24.88125,-20.2875,watch_1
15649989348561,7.8053875,-8.328219,3.5240295,0.94928384,0.24373505,-0.5196932,-13.218751,24.018751,-21.675001,watch_1
15649999348509,7.8053875,-8.328219,3.5240295,0.94928384,0.24373505,-0.5196932,-12.656251,25.087502,-21.712502,watch_1
15649996117676,7.9106717,-8.199007,4.624728,0.94928384,0.24373505,-0.5196932,-12.656251,25.087502,-21.712502,watch_1
15649991154916,7.9106717,-8.199007,4.624728,0.9150754,0.24006985,-0.7640391,-12.656251,25.087502,-21.712502,watch_1
15650009348457,7.9106717,-8.199007,4.624728,0.9150754,0.24006985,-0.7640391,-11.512501,24.35625,-20.362501,watch_1
15650019348405,7.9106717,-8.199007,4.624728,0.9150754,0.24006985,-0.7640391,-13.725,23.550001,-22.275002,watch_1
15650015191634,7.5900335,-7.873583,4.859225,0.69394237,0.2583958,-1.0645846,-13.725,23.550001,-22.275002,watch_1
15650010228874,7.5900335,-7.873583,4.859225,0.69394237,0.2583958,-1.0645846,-13.725,23.550001,-22.275002,watch_1
15650029348353,7.5900335,-7.873583,4.859225,0.69394237,0.2583958,-1.0645846,-14.38125,22.875,-21.4125,watch_1
15650039348301,7.5900335,-7.873583,4.859225,0.69394237,0.2583958,-1.0645846,-14.7375,23.98125,-22.425001,watch_1
15650029301895,7.4943204,-7.2179494,5.0602217,0.69272065,0.262061,-1.247844,-14.7375,23.98125,-22.425001,watch_1
15650034264655,7.4943204,-7.2179494,5.0602217,0.69272065,0.262061,-1.247844,-14.7375,23.98125,-22.425001,watch_1
15650049348249,7.4943204,-7.2179494,5.0602217,0.69272065,0.262061,-1.247844,-13.593751,23.4375,-22.3875,watch_1
15650059348197,7.4943204,-7.2179494,5.0602217,0.69272065,0.262061,-1.247844,-14.475,22.331251,-22.3875,watch_1
15650053337676,7.9633136,-5.9880385,5.132006,0.69272065,0.262061,-1.247844,-14.475,22.331251,-22.3875,watch_1
15650048374916,7.9633136,-5.9880385,5.132006,0.9993748,0.21930045,-1.2197442,-15.450001,20.53125,-24.056252,watch_1
15650069348145,7.9633136,-5.9880385,5.132006,0.9993748,0.21930045,-1.2197442,-15.450001,20.53125,-24.056252,watch_1
15650079348093,7.9633136,-5.9880385,5.132006,0.9993748,0.21930045,-1.2197442,-17.15625,21.46875,-24.7875,watch_1
15650067448874,7.60439,-4.432704,5.1176496,1.1899645,0.19975278,-1.0242676,-17.15625,21.46875,-24.7875,watch_1
15650072411634,7.60439,-4.432704,5.1176496,1.1899645,0.19975278,-1.0242676,-17.15625,21.46875,-24.7875,watch_1
15650089348041,7.60439,-4.432704,5.1176496,1.1899645,0.19975278,-1.0242676,-14.94375,20.868752,-23.60625,watch_1
15650099347989,7.60439,-4.432704,5.1176496,1.1899645,0.19975278,-1.0242676,-16.050001,20.775002,-25.462502,watch_1
15650091484655,7.183254,-2.882155,5.0219364,1.1899645,0.19975278,-1.0242676,-16.050001,20.775002,-25.462502,watch_1
15650086521895,7.183254,-2.882155,5.0219364,1.1985167,0.17043127,-0.79091716,-16.050001,20.775002,-25.462502,watch_1
15650109347936,7.183254,-2.882155,5.0219364,1.1985167,0.17043127,-0.79091716,-16.66875,19.143751,-25.368752,watch_1
15650119347884,7.183254,-2.882155,5.0219364,1.1985167,0.17043127,-0.79091716,-15.675,18.525002,-24.187502,watch_1
15650110558666,7.3172517,-1.9776679,5.108078,1.0677916,0.09957096,-0.6101012,-15.675,18.525002,-24.187502,watch_1
15650105595905,7.3172517,-1.9776679,5.108078,1.0677916,0.09957096,-0.6101012,-15.675,18.525002,-24.187502,watch_1
15650129347832,7.3172517,-1.9776679,5.108078,1.0677916,0.09957096,-0.6101012,-17.268751,19.06875,-25.44375,watch_1
15650129631634,7.216753,-1.6378871,5.3090754,0.7305943,0.04703659,-0.43050694,-17.550001,18.206251,-26.550001,watch_1
15650124668874,7.216753,-1.6378871,5.3090754,0.7305943,0.04703659,-0.43050694,-17.550001,18.206251,-26.550001,watch_1
15650139347780,7.216753,-1.6378871,5.3090754,0.7305943,0.04703659,-0.43050694,-17.550001,18.206251,-26.550001,watch_1
15650149347728,7.216753,-1.6378871,5.3090754,0.7305943,0.04703659,-0.43050694,-16.368752,19.35,-26.812502,watch_1
15650148705645,7.111469,-0.99661064,5.1607203,0.3555233,-0.007941242,-0.19471315,-16.050001,18.112501,-26.5125,watch_1
15650143742884,7.111469,-0.99661064,5.1607203,0.3555233,-0.007941242,-0.19471315,-16.050001,18.112501,-26.5125,watch_1
15650159347676,7.111469,-0.99661064,5.1607203,0.3555233,-0.007941242,-0.19471315,-16.050001,18.112501,-26.5125,watch_1
15650169347624,7.111469,-0.99661064,5.1607203,0.3555233,-0.007941242,-0.19471315,-16.612501,16.875,-25.29375,watch_1
15650162785905,7.111469,-0.99661064,5.1607203,0.02565632,-0.058032155,0.11071924,-18.243752,18.35625,-24.900002,watch_1
15650179347572,7.111469,-0.99661064,5.1607203,0.02565632,-0.058032155,0.11071924,-18.243752,18.35625,-24.900002,watch_1
15650167748666,7.01097,-0.8817552,4.5098724,0.02565632,-0.058032155,0.11071924,-18.243752,18.35625,-24.900002,watch_1
15650189347520,7.01097,-0.8817552,4.5098724,0.02565632,-0.058032155,0.11071924,-18.0375,17.7,-25.81875,watch_1
15650186821634,6.7669024,-1.2502499,3.758526,0.02565632,-0.058032155,0.11071924,-18.0375,17.7,-25.81875,watch_1
15650199347468,6.7669024,-1.2502499,3.758526,-0.26755878,-0.051923506,0.40149087,-17.925001,18.712502,-26.343752,watch_1
15650181858874,6.7669024,-1.2502499,3.758526,-0.26755878,-0.051923506,0.40149087,-17.925001,18.712502,-26.343752,watch_1
15650209347416,6.7669024,-1.2502499,3.758526,-0.26755878,-0.051923506,0.40149087,-17.41875,19.181252,-25.312502,watch_1
15650200932884,6.910472,-1.2215359,3.8638103,-0.44837475,-0.03604102,0.61285007,-17.41875,19.181252,-25.312502,watch_1
15650205895645,6.910472,-1.2215359,3.8638103,-0.44837475,-0.03604102,0.61285007,-17.41875,19.181252,-25.312502,watch_1
15650219347364,6.910472,-1.2215359,3.8638103,-0.44837475,-0.03604102,0.61285007,-16.181252,19.1625,-23.56875,watch_1
15650229347311,6.910472,-1.2215359,3.8638103,-0.44837475,-0.03604102,0.61285007,-17.550001,18.206251,-26.831251,watch_1
15650224968666,6.8578296,-1.0348958,4.38066,-0.44837475,-0.03604102,0.61285007,-17.550001,18.206251,-26.831251,watch_1
15650220005905,6.8578296,-1.0348958,4.38066,-0.54611313,-0.05070178,0.73990995,-17.550001,18.206251,-26.831251,watch_1
15650239347259,6.8578296,-1.0348958,4.38066,-0.54611313,-0.05070178,0.73990995,-16.66875,20.56875,-25.95,watch_1
15650249347207,6.8578296,-1.0348958,4.38066,-0.54611313,-0.05070178,0.73990995,-15.918751,20.34375,-24.825,watch_1
15650239079916,6.910472,-2.0111675,3.9834516,-0.7232639,-0.1178969,0.8290962,-15.918751,20.34375,-24.825,watch_1
15650244042676,6.910472,-2.0111675,3.9834516,-0.7232639,-0.1178969,0.8290962,-15.918751,20.34375,-24.825,watch_1
15650259347155,6.910472,-2.0111675,3.9834516,-0.7232639,-0.1178969,0.8290962,-15.618751,20.38125,-24.206251,watch_1
15650269347103,6.910472,-2.0111675,3.9834516,-0.7232639,-0.1178969,0.8290962,-15.50625,21.375,-23.868752,watch_1
15650263115645,6.8243303,-2.8725836,3.7298124,-0.85398895,-0.1508836,0.87063503,-15.50625,21.375,-23.868752,watch_1
15650258152884,6.8243303,-2.8725836,3.7298124,-0.85398895,-0.1508836,0.87063503,-15.50625,21.375,-23.868752,watch_1
15650279347051,6.8243303,-2.8725836,3.7298124,-0.85398895,-0.1508836,0.87063503,-14.025001,21.13125,-23.081251,watch_1
15650289346999,6.8243303,-2.8725836,3.7298124,-0.85398895,-0.1508836,0.87063503,-14.55,21.618752,-23.04375,watch_1
15650282189655,6.6329045,-3.21715,3.964309,-1.1081088,-0.15821397,0.8523091,-14.55,21.618752,-23.04375,watch_1
15650277226895,6.6329045,-3.21715,3.964309,-1.1081088,-0.15821397,0.8523091,-14.55,21.618752,-23.04375,watch_1
15650299346947,6.6329045,-3.21715,3.964309,-1.1081088,-0.15821397,0.8523091,-15.825001,22.143751,-22.237501,watch_1
15650309346895,6.6329045,-3.21715,3.964309,-1.1081088,-0.15821397,0.8523091,-15.20625,22.5375,-23.5125,watch_1
15650301262676,6.7908306,-4.3800616,3.5766716,-1.1081088,-0.15821397,0.8523091,-15.20625,22.5375,-23.5125,watch_1
15650296299916,6.7908306,-4.3800616,3.5766716,-1.3622285,-0.15821397,0.8278745,-15.20625,22.5375,-23.5125,watch_1
15650319346843,6.7908306,-4.3800616,3.5766716,-1.3622285,-0.15821397,0.8278745,-14.437501,24.0375,-23.1375,watch_1
15650329346791,6.7908306,-4.3800616,3.5766716,-1.3622285,-0.15821397,0.8278745,-12.243751,24.73125,-21.91875,watch_1
15650320336634,7.0492554,-5.0309095,3.0263224,-1.1948515,-0.15577053,0.79000086,-12.243751,24.73125,-21.91875,watch_1
15650315373874,7.0492554,-5.0309095,3.0263224,-1.1948515,-0.15577053,0.79000086,-12.243751,24.73125,-21.91875,watch_1
15650339346739,7.0492554,-5.0309095,3.0263224,-1.1948515,-0.15577053,0.79000086,-13.556251,24.018751,-23.175001,watch_1
15650349346686,7.0492554,-5.0309095,3.0263224,-1.1948515,-0.15577053,0.79000086,-13.425,24.675001,-20.456251,watch_1
15650334446895,6.7669024,-5.40419,3.2656047,-0.8784236,-0.12156209,0.78022707,-13.425,24.675001,-20.456251,watch_1
15650339409655,6.7669024,-5.40419,3.2656047,-0.8784236,-0.12156209,0.78022707,-13.425,24.675001,-20.456251,watch_1
15650359346634,6.7669024,-5.40419,3.2656047,-0.8784236,-0.12156209,0.78022707,-14.19375,24.91875,-22.612501,watch_1
15650369346582,6.666404,-6.007181,3.399603,-0.7342595,-0.089797124,0.7460186,-13.218751,24.018751,-21.09375,watch_1
15650353489916,6.666404,-6.007181,3.399603,-0.7342595,-0.089797124,0.7460186,-13.218751,24.018751,-21.09375,watch_1
15650358452676,6.666404,-6.007181,3.399603,-0.7342595,-0.089797124,0.7460186,-13.218751,24.018751,-21.09375,watch_1
15650379346530,6.666404,-6.007181,3.399603,-0.7342595,-0.089797124,0.7460186,-11.4375,26.6625,-21.73125,watch_1
15650377526634,7.015756,-7.007381,3.2177482,-0.7342595,-0.089797124,0.7460186,-11.4375,26.6625,-21.73125,watch_1
15650389346478,7.015756,-7.007381,3.2177482,-0.8319978,-0.083688475,0.6849321,-10.837501,26.250002,-18.712502,watch_1
15650372563874,7.015756,-7.007381,3.2177482,-0.8319978,-0.083688475,0.6849321,-10.837501,26.250002,-18.712502,watch_1
15650399346426,7.015756,-7.007381,3.2177482,-0.8319978,-0.083688475,0.6849321,-11.6625,27.018751,-20.34375,watch_1
15650396599655,7.0301127,-8.462217,3.0406795,-0.8930843,-0.082466744,0.5933024,-11.6625,27.018751,-20.34375,watch_1
15650391636895,7.0301127,-8.462217,3.0406795,-0.8930843,-0.082466744,0.5933024,-11.6625,27.018751,-20.34375,watch_1
15650409346374,7.0301127,-8.462217,3.0406795,-0.8930843,-0.082466744,0.5933024,-11.83125,26.85,-19.9125,watch_1
15650419346322,7.0301127,-8.462217,3.0406795,-0.8930843,-0.082466744,0.5933024,-10.14375,26.8875,-18.112501,watch_1
15650415673666,7.245467,-9.223135,2.8492537,-0.8930843,-0.082466744,0.5933024,-10.14375,26.8875,-18.112501,watch_1
15650410710905,7.245467,-9.223135,2.8492537,-0.7806852,-0.08491021,0.47601637,-11.19375,27.056252,-18.54375,watch_1
15650429346270,7.245467,-9.223135,2.8492537,-0.7806852,-0.08491021,0.47601637,-11.19375,27.056252,-18.54375,watch_1
15650439346218,7.245467,-9.223135,2.8492537,-0.7806852,-0.08491021,0.47601637,-12.0,24.7875,-16.66875,watch_1
15650434746634,7.4129643,-10.462617,2.7678976,-0.7806852,-0.08491021,0.47601637,-12.0,24.7875,-16.66875,watch_1
15650429783874,7.4129643,-10.462617,2.7678976,-0.65973395,-0.04459313,0.32940882,-12.0,24.7875,-16.66875,watch_1
15650449346166,7.4129643,-10.462617,2.7678976,-0.65973395,-0.04459313,0.32940882,-10.106251,27.16875,-17.56875,watch_1
15650459346114,7.4129643,-10.462617,2.7678976,-0.65973395,-0.04459313,0.32940882,-10.725,26.925001,-17.025002,watch_1
15650448857884,7.4129643,-10.462617,2.7678976,-0.4300488,0.0140498895,0.07773254,-10.725,26.925001,-17.025002,watch_1
15650469346061,7.5326056,-10.797612,2.6482565,-0.4300488,0.0140498895,0.07773254,-11.15625,27.018751,-17.23125,watch_1
15650453820645,7.5326056,-10.797612,2.6482565,-0.4300488,0.0140498895,0.07773254,-11.15625,27.018751,-17.23125,watch_1
15650479346009,7.5326056,-10.797612,2.6482565,-0.4300488,0.0140498895,0.07773254,-12.337501,25.893751,-17.7,watch_1
15650472893666,7.618747,-10.85504,2.3659034,-0.23212862,0.07880156,-0.24113888,-12.337501,25.893751,-17.7,watch_1
15650467930905,7.618747,-10.85504,2.3659034,-0.23212862,0.07880156,-0.24113888,-12.337501,25.893751,-17.7,watch_1
15650489345957,7.618747,-10.85504,2.3659034,-0.23212862,0.07880156,-0.24113888,-12.6,27.862501,-19.21875,watch_1
15650499345905,7.838887,-10.859825,2.2031915,-0.23212862,0.07880156,-0.24113888,-12.3,26.325,-17.737501,watch_1
15650491967676,7.838887,-10.859825,2.2031915,-0.23212862,0.07880156,-0.24113888,-12.3,26.325,-17.737501,watch_1
15650487004916,7.838887,-10.859825,2.2031915,0.018325943,0.13500112,-0.53313226,-12.3,26.325,-17.737501,watch_1
15650509345853,7.838887,-10.859825,2.2031915,0.018325943,0.13500112,-0.53313226,-11.887501,27.375002,-18.375,watch_1
15650519345801,7.838887,-10.859825,2.2031915,0.018325943,0.13500112,-0.53313226,-12.675,28.406252,-18.4125,watch_1
15650511040645,7.877172,-11.032109,2.0021944,0.30543238,0.18264857,-0.80679965,-12.675,28.406252,-18.4125,watch_1
15650506077884,7.877172,-11.032109,2.0021944,0.30543238,0.18264857,-0.80679965,-12.675,28.406252,-18.4125,watch_1
15650529345749,7.877172,-11.032109,2.0021944,0.30543238,0.18264857,-0.80679965,-12.431251,26.75625,-19.237501,watch_1
15650539345697,7.877172,-11.032109,2.0021944,0.30543238,0.18264857,-0.80679965,-11.34375,26.868752,-17.8125,watch_1
15650530114655,7.408179,-9.270991,2.5908287,0.71226835,0.24617851,-1.0914626,-11.34375,26.868752,-17.8125,watch_1
15650525151895,7.408179,-9.270991,2.5908287,0.71226835,0.24617851,-1.0914626,-11.34375,26.868752,-17.8125,watch_1
15650549345645,7.408179,-9.270991,2.5908287,0.71226835,0.24617851,-1.0914626,-13.06875,24.993752,-19.425001,watch_1
15650559345593,7.408179,-9.270991,2.5908287,0.71226835,0.24617851,-1.0914626,-14.45625,24.187502,-16.893751,watch_1
15650549157676,7.0636125,-7.6103725,3.9451663,0.71226835,0.24617851,-1.0914626,-14.45625,24.187502,-16.893751,watch_1
15650544194916,7.0636125,-7.6103725,3.9451663,0.8393282,0.23884813,-1.3003784,-14.45625,24.187502,-16.893751,watch_1
15650569345541,7.0636125,-7.6103725,3.9451663,0.8393282,0.23884813,-1.3003784,-12.4875,24.6,-17.587502,watch_1
15650568230645,7.8053875,-6.739385,3.935595,0.8393282,0.23884813,-1.3003784,-12.4875,24.6,-17.587502,watch_1
15650563267884,7.8053875,-6.739385,3.935595,0.718377,0.15821397,-1.4775292,-12.4875,24.6,-17.587502,watch_1
15650579345489,7.8053875,-6.739385,3.935595,0.718377,0.15821397,-1.4775292,-13.481251,22.5,-18.35625,watch_1
15650589345436,7.8053875,-6.739385,3.935595,0.718377,0.15821397,-1.4775292,-15.675,23.081251,-18.956251,watch_1
15650587304655,7.609176,-6.4474607,3.5001013,0.86131936,0.14844014,-1.5166246,-16.837502,22.25625,-20.60625,watch_1
15650582341895,7.609176,-6.4474607,3.5001013,0.86131936,0.14844014,-1.5166246,-16.837502,22.25625,-20.60625,watch_1
15650599345384,7.609176,-6.4474607,3.5001013,0.86131936,0.14844014,-1.5166246,-16.837502,22.25625,-20.60625,watch_1
15650609345332,7.609176,-6.4474607,3.5001013,0.86131936,0.14844014,-1.5166246,-15.243751,23.34375,-21.69375,watch_1
15650601414916,7.3459654,-4.729414,4.5768714,1.55404,0.1545488,-1.3687953,-15.243751,23.34375,-21.69375,watch_1
15650606377676,7.3459654,-4.729414,4.5768714,1.55404,0.1545488,-1.3687953,-15.243751,23.34375,-21.69375,watch_1
15650619345280,7.3459654,-4.729414,4.5768714,1.55404,0.1545488,-1.3687953,-15.843751,20.90625,-23.56875,watch_1
15650629345228,7.3459654,-4.729414,4.5768714,1.55404,0.1545488,-1.3687953,-16.6875,19.7625,-21.956251,watch_1
15650625451634,7.676175,-1.6713866,5.6057854,1.55404,0.1545488,-1.3687953,-16.6875,19.7625,-21.956251,watch_1
15650620488874,7.676175,-1.6713866,5.6057854,1.8582506,0.07269291,-1.0865757,-18.056252,19.59375,-22.087502,watch_1
15650639345176,7.676175,-1.6713866,5.6057854,1.8582506,0.07269291,-1.0865757,-18.056252,19.59375,-22.087502,watch_1
15650649345124,7.676175,-1.6713866,5.6057854,1.8582506,0.07269291,-1.0865757,-17.831251,20.5125,-23.90625,watch_1
15650644524655,6.987042,-1.867598,5.017151,1.8582506,0.07269291,-1.0865757,-17.831251,20.5125,-23.90625,watch_1
15650639561895,6.987042,-1.867598,5.017151,1.0323615,0.0042760535,-0.7029526,-17.831251,20.5125,-23.90625,watch_1
15650659345072,6.987042,-1.867598,5.017151,1.0323615,0.0042760535,-0.7029526,-17.081251,19.181252,-23.25,watch_1
15650669345020,6.987042,-1.867598,5.017151,1.0323615,0.0042760535,-0.7029526,-18.13125,20.456251,-23.34375,watch_1
15650663597676,6.532406,-0.6903293,4.9980083,0.0537561,-0.076358095,-0.43417215,-18.13125,20.456251,-23.34375,watch_1
15650658634916,6.532406,-0.6903293,4.9980083,0.0537561,-0.076358095,-0.43417215,-18.13125,20.456251,-23.34375,watch_1
15650679344968,6.532406,-0.6903293,4.9980083,0.0537561,-0.076358095,-0.43417215,-17.831251,20.493752,-23.60625,watch_1
15650689344916,6.532406,-0.6903293,4.9980083,0.0537561,-0.076358095,-0.43417215,-18.581251,20.0625,-21.31875,watch_1
15650682671634,7.173682,-1.2646067,4.3519464,-0.654847,-0.2254091,-0.23869541,-18.581251,20.0625,-21.31875,watch_1
15650677708874,7.173682,-1.2646067,4.3519464,-0.654847,-0.2254091,-0.23869541,-18.581251,20.0625,-21.31875,watch_1
15650699344864,7.173682,-1.2646067,4.3519464,-0.654847,-0.2254091,-0.23869541,-18.65625,22.35,-22.575,watch_1
15650709344811,7.173682,-1.2646067,4.3519464,-0.654847,-0.2254091,-0.23869541,-16.875,20.737501,-22.06875,watch_1
15650701744655,7.570891,-2.1164517,3.8350966,-0.56077385,-0.29626942,-0.010231985,-16.875,20.737501,-22.06875,watch_1
15650696781895,7.570891,-2.1164517,3.8350966,-0.56077385,-0.29626942,-0.010231985,-16.875,20.737501,-22.06875,watch_1
15650719344759,7.570891,-2.1164517,3.8350966,-0.56077385,-0.29626942,-0.010231985,-19.1625,21.88125,-23.456251,watch_1
15650729344707,7.570891,-2.1164517,3.8350966,-0.56077385,-0.29626942,-0.010231985,-17.118752,21.112501,-21.4125,watch_1
15650715855905,7.570891,-2.1164517,3.8350966,-0.19058982,-0.25106543,0.25488332,-17.118752,21.112501,-21.4125,watch_1
15650720818666,7.192825,-1.2550355,3.8446677,-0.19058982,-0.25106543,0.25488332,-17.8125,22.06875,-23.90625,watch_1
15650739344655,7.192825,-1.2550355,3.8446677,-0.19058982,-0.25106543,0.25488332,-17.8125,22.06875,-23.90625,watch_1
15650749344603,7.192825,-1.2550355,3.8446677,-0.19058982,-0.25106543,0.25488332,-16.48125,21.46875,-21.075,watch_1
15650739861634,6.4414787,-0.5371887,4.208377,-0.19058982,-0.25106543,0.25488332,-16.48125,21.46875,-21.075,watch_1
15650734898874,6.4414787,-0.5371887,4.208377,-0.15760311,-0.22418737,0.5102248,-16.48125,21.46875,-21.075,watch_1
15650759344551,6.4414787,-0.5371887,4.208377,-0.15760311,-0.22418737,0.5102248,-18.13125,20.456251,-22.9125,watch_1
15650758934655,6.34098,-1.4656038,3.78724,-0.15760311,-0.22418737,0.5102248,-18.13125,20.456251,-22.9125,watch_1
15650753971895,6.34098,-1.4656038,3.78724,-0.4667007,-0.2376264,0.73013616,-18.13125,20.456251,-22.9125,watch_1
15650769344499,6.34098,-1.4656038,3.78724,-0.4667007,-0.2376264,0.73013616,-17.475,20.475,-20.5125,watch_1
15650779344447,6.34098,-1.4656038,3.78724,-0.4667007,-0.2376264,0.73013616,-17.1375,21.112501,-21.69375,watch_1
15650773045905,6.34098,-1.4656038,3.78724,-0.6707295,-0.2254091,0.92439115,-17.1375,21.112501,-21.69375,watch_1
15650789344395,6.63769,-2.4466612,3.1794631,-0.6707295,-0.2254091,0.92439115,-18.375,22.10625,-22.518751,watch_1
15650778008666,6.63769,-2.4466612,3.1794631,-0.6707295,-0.2254091,0.92439115,-18.375,22.10625,-22.518751,watch_1
15650799344343,6.63769,-2.4466612,3.1794631,-0.6707295,-0.2254091,0.92439115,-15.993751,21.825,-21.337502,watch_1
15650797081634,7.283752,-3.1645079,2.0165513,-0.60964304,-0.16432263,1.0783291,-15.993751,21.825,-21.337502,watch_1
15650809344291,7.283752,-3.1645079,2.0165513,-0.60964304,-0.16432263,1.0783291,-17.15625,20.6625,-20.643751,watch_1
15650792118874,7.283752,-3.1645079,2.0165513,-0.60964304,-0.16432263,1.0783291,-15.993751,21.825,-21.337502,watch_1
15650819344239,7.283752,-3.1645079,2.0165513,-0.60964304,-0.16432263,1.0783291,-16.143751,23.0625,-20.60625,watch_1
15650811192884,7.283752,-3.1645079,2.0165513,-0.47769627,-0.06536253,1.1064289,-16.143751,23.0625,-20.60625,watch_1
15650816155645,7.0348988,-3.2745779,2.179263,-0.47769627,-0.06536253,1.1064289,-14.925,21.618752,-18.88125,watch_1
15650829344186,7.0348988,-3.2745779,2.179263,-0.47769627,-0.06536253,1.1064289,-14.925,21.618752,-18.88125,watch_1
15650839344134,7.0348988,-3.2745779,2.179263,-0.47769627,-0.06536253,1.1064289,-14.475,24.54375,-20.268751,watch_1
15650835228666,6.4845495,-3.5521452,3.1172497,-0.47769627,-0.06536253,1.1064289,-14.475,24.54375,-20.268751,watch_1
15650830265905,6.4845495,-3.5521452,3.1172497,-0.537561,-0.05070178,1.1137592,-14.437501,24.806252,-19.575,watch_1
15650849344082,6.4845495,-3.5521452,3.1172497,-0.537561,-0.05070178,1.1137592,-14.437501,24.806252,-19.575,watch_1
15650859344030,6.4845495,-3.5521452,3.1172497,-0.537561,-0.05070178,1.1137592,-14.587501,23.5125,-19.462502,watch_1
15650854302676,6.5228343,-4.4231324,2.8348966,-0.7611375,-0.13377939,1.1785109,-14.587501,23.5125,-19.462502,watch_1
15650849339916,6.5228343,-4.4231324,2.8348966,-0.7611375,-0.13377939,1.1785109,-14.587501,23.5125,-19.462502,watch_1
15650869343978,6.5228343,-4.4231324,2.8348966,-0.7611375,-0.13377939,1.1785109,-14.325001,25.800001,-19.06875,watch_1
15650879343926,6.5228343,-4.4231324,2.8348966,-0.7611375,-0.13377939,1.1785109,-13.462501,25.181252,-17.75625,watch_1
15650873375645,6.843473,-6.2847486,2.140978,-1.0812306,-0.18631376,1.1919498,-13.462501,25.181252,-17.75625,watch_1
15650868412884,6.843473,-6.2847486,2.140978,-1.0812306,-0.18631376,1.1919498,-13.462501,25.181252,-17.75625,watch_1
15650889343874,6.843473,-6.2847486,2.140978,-1.0812306,-0.18631376,1.1919498,-14.812501,27.0375,-20.41875,watch_1
15650899343822,6.843473,-6.2847486,2.140978,-1.0812306,-0.18631376,1.1919498,-13.931251,26.23125,-16.59375,watch_1
15650892449655,7.159325,-7.5433736,2.2701905,-1.2803726,-0.18264857,1.0722204,-13.931251,26.23125,-16.59375,watch_1
15650887486895,7.159325,-7.5433736,2.2701905,-1.2803726,-0.18264857,1.0722204,-13.931251,26.23125,-16.59375,watch_1
15650909343770,7.159325,-7.5433736,2.2701905,-1.2803726,-0.18264857,1.0722204,-14.587501,27.13125,-16.7625,watch_1
15650919343718,7.159325,-7.5433736,2.2701905,-1.2803726,-0.18264857,1.0722204,-11.75625,28.35,-16.40625,watch_1
15650906559916,7.30768,-7.6630144,2.6243281,-1.364672,-0.1838703,0.9097304,-11.75625,28.35,-16.40625,watch_1
15650911522676,7.30768,-7.6630144,2.6243281,-1.364672,-0.1838703,0.9097304,-11.75625,28.35,-16.40625,watch_1
15650929343666,7.30768,-7.6630144,2.6243281,-1.364672,-0.1838703,0.9097304,-13.875001,25.050001,-14.7375,watch_1
15650939343614,7.30768,-7.6630144,2.6243281,-1.364672,-0.1838703,0.9097304,-12.975,27.88125,-15.337501,watch_1
15650930565645,7.4416785,-9.519845,1.7820547,-1.2974768,-0.20586143,0.81810063,-12.975,27.88125,-15.337501,watch_1
15650925602884,7.4416785,-9.519845,1.7820547,-1.2974768,-0.20586143,0.81810063,-12.975,27.88125,-15.337501,watch_1
15650949343561,7.4416785,-9.519845,1.7820547,-1.2974768,-0.20586143,0.81810063,-11.700001,28.931252,-17.475,watch_1
15650959343509,7.4416785,-9.519845,1.7820547,-1.2974768,-0.20586143,0.81810063,-12.056251,27.825,-14.062501,watch_1
15650949639655,7.4177504,-10.764112,1.332204,-0.9309579,-0.16065744,0.62873256,-12.056251,27.825,-14.062501,watch_1
15650944676895,7.4177504,-10.764112,1.332204,-0.9309579,-0.16065744,0.62873256,-12.056251,27.825,-14.062501,watch_1
15650969343457,7.4177504,-10.764112,1.332204,-0.9309579,-0.16065744,0.62873256,-12.806251,29.306252,-15.168751,watch_1
15650968712676,7.6426754,-11.438889,1.1072787,-0.57787806,-0.058032155,0.37216938,-12.806251,29.306252,-15.168751,watch_1
15650963749916,7.6426754,-11.438889,1.1072787,-0.57787806,-0.058032155,0.37216938,-12.806251,29.306252,-15.168751,watch_1
15650979343405,7.6426754,-11.438889,1.1072787,-0.57787806,-0.058032155,0.37216938,-11.962501,30.112501,-14.437501,watch_1
15650989343353,7.6426754,-11.438889,1.1072787,-0.57787806,-0.058032155,0.37216938,-11.962501,30.112501,-14.437501,watch_1
15650982823874,7.6426754,-11.438889,1.1072787,-0.24434592,0.032375835,0.093615025,-10.6875,27.993752,-13.63125,watch_1
15650999343301,7.6426754,-11.438889,1.1072787,-0.24434592,0.032375835,0.093615025,-10.6875,27.993752,-13.63125,watch_1
15650987786634,7.5996046,-11.692528,1.3369896,-0.24434592,0.032375835,0.093615025,-10.6875,27.993752,-13.63125,watch_1
15651009343249,7.5996046,-11.692528,1.3369896,-0.24434592,0.032375835,0.093615025,-11.606251,29.306252,-14.887501,watch_1
15651006859655,7.5326056,-11.22832,1.250848,0.12339468,0.10567961,-0.16294818,-11.606251,29.306252,-14.887501,watch_1
15651001896895,7.5326056,-11.22832,1.250848,0.12339468,0.10567961,-0.16294818,-11.606251,29.306252,-14.887501,watch_1
15651019343197,7.5326056,-11.22832,1.250848,0.12339468,0.10567961,-0.16294818,-11.34375,28.575,-12.01875,watch_1
15651029343145,7.5326056,-11.22832,1.250848,0.12339468,0.10567961,-0.16294818,-11.64375,27.750002,-14.887501,watch_1
15651025933666,7.838887,-10.93161,0.5808577,0.284663,0.19486587,-0.44272426,-11.64375,27.750002,-14.887501,watch_1
15651020970905,7.838887,-10.93161,0.5808577,0.284663,0.19486587,-0.44272426,-11.64375,27.750002,-14.887501,watch_1
15651039343093,7.838887,-10.93161,0.5808577,0.284663,0.19486587,-0.44272426,-11.83125,25.725,-13.687501,watch_1
15651049343041,7.838887,-10.93161,0.5808577,0.284663,0.19486587,-0.44272426,-12.750001,28.781252,-17.00625,watch_1
15651045006634,7.456035,-10.7019,-0.036490545,0.284663,0.19486587,-0.44272426,-12.750001,28.781252,-17.00625,watch_1
15651040043874,7.456035,-10.7019,-0.036490545,0.45692685,0.34391686,-0.7799216,-12.750001,28.781252,-17.00625,watch_1
15651059342989,7.456035,-10.7019,-0.036490545,0.45692685,0.34391686,-0.7799216,-11.400001,28.650002,-15.825001,watch_1
15651069342936,7.456035,-10.7019,-0.036490545,0.45692685,0.34391686,-0.7799216,-12.843751,27.750002,-15.468751,watch_1
15651064080645,6.9678993,-10.6349,1.1886346,0.45692685,0.34391686,-0.7799216,-12.843751,27.750002,-15.468751,watch_1
15651059117884,6.9678993,-10.6349,1.1886346,0.7831286,0.47586367,-1.1782055,-12.843751,27.750002,-15.468751,watch_1
15651079342884,6.9678993,-10.6349,1.1886346,0.7831286,0.47586367,-1.1782055,-12.69375,27.618752,-14.700001,watch_1
15651089342832,6.9678993,-10.6349,1.1886346,0.7831286,0.47586367,-1.1782055,-15.31875,27.487501,-18.1875,watch_1
15651078190905,7.1306114,-10.553544,2.7918258,0.98593575,0.50885034,-1.5838196,-15.31875,27.487501,-18.1875,watch_1
15651083153666,7.1306114,-10.553544,2.7918258,0.98593575,0.50885034,-1.5838196,-15.31875,27.487501,-18.1875,watch_1
15651099342780,7.1306114,-10.553544,2.7918258,0.98593575,0.50885034,-1.5838196,-14.868751,27.393751,-17.550001,watch_1
15651109342728,7.1306114,-10.553544,2.7918258,0.98593575,0.50885034,-1.5838196,-14.887501,25.987501,-18.28125,watch_1
15651102227676,6.8482585,-9.275777,4.107878,1.1325433,0.49296787,-1.971108,-14.887501,25.987501,-18.28125,watch_1
15651097264916,6.8482585,-9.275777,4.107878,1.1325433,0.49296787,-1.971108,-14.887501,25.987501,-18.28125,watch_1
15651119342676,6.8482585,-9.275777,4.107878,1.1325433,0.49296787,-1.971108,-15.918751,26.156252,-18.993752,watch_1
15651129342624,5.828916,-9.328419,3.8255253,1.0409136,0.4856375,-2.2447753,-15.337501,24.993752,-20.56875,watch_1
15651121270645,5.828916,-9.328419,3.8255253,1.0409136,0.4856375,-2.2447753,-15.337501,24.993752,-20.56875,watch_1
15651116307884,5.828916,-9.328419,3.8255253,1.0409136,0.4856375,-2.2447753,-15.337501,24.993752,-20.56875,watch_1
15651139342572,5.828916,-9.328419,3.8255253,1.0409136,0.4856375,-2.2447753,-15.337501,24.993752,-20.56875,watch_1
15651149342520,5.4125648,-8.036295,2.9401808,1.1252129,0.59559315,-2.3840525,-17.550001,21.0,-19.125,watch_1
15651140343666,5.4125648,-8.036295,2.9401808,1.1252129,0.59559315,-2.3840525,-17.550001,21.0,-19.125,watch_1
15651135380905,5.4125648,-8.036295,2.9401808,1.1252129,0.59559315,-2.3840525,-17.550001,21.0,-19.125,watch_1
15651159342468,5.4125648,-8.036295,2.9401808,1.1252129,0.59559315,-2.3840525,-17.550001,21.0,-19.125,watch_1
15651154454916,5.4125648,-8.036295,2.9401808,1.2534945,0.7324269,-2.540434,-17.550001,21.0,-19.125,watch_1
15651169342416,5.3647084,-5.389833,3.246462,1.2534945,0.7324269,-2.540434,-18.73125,21.300001,-20.15625,watch_1
15651159417676,5.3647084,-5.389833,3.246462,1.2534945,0.7324269,-2.540434,-18.73125,21.300001,-20.15625,watch_1
15651179342364,5.3647084,-5.389833,3.246462,1.2534945,0.7324269,-2.540434,-17.75625,17.400002,-17.19375,watch_1
15651173527884,5.3647084,-5.389833,3.246462,0.5705477,0.8118393,-2.7933319,-17.75625,17.400002,-17.19375,watch_1
15651178490645,4.694718,-5.2893343,4.1461635,0.5705477,0.8118393,-2.7933319,-17.75625,17.400002,-17.19375,watch_1
15651189342311,4.694718,-5.2893343,4.1461635,0.5705477,0.8118393,-2.7933319,-17.98125,16.987501,-18.768751,watch_1
15651199342259,4.694718,-5.2893343,4.1461635,0.5705477,0.8118393,-2.7933319,-21.16875,19.59375,-21.431252,watch_1
15651192601895,4.694718,-5.2893343,4.1461635,-0.44959646,0.8509346,-3.086547,-20.831251,18.46875,-20.118752,watch_1
15651209342207,3.8955152,-5.4520464,4.2035913,-0.44959646,0.8509346,-3.086547,-20.831251,18.46875,-20.118752,watch_1
15651197564655,3.8955152,-5.4520464,4.2035913,-0.44959646,0.8509346,-3.086547,-20.831251,18.46875,-20.118752,watch_1
15651219342155,3.8955152,-5.4520464,4.2035913,-0.44959646,0.8509346,-3.086547,-21.300001,17.00625,-20.60625,watch_1
15651216637676,3.2207394,-4.6097727,3.9116669,-0.44959646,0.8509346,-3.086547,-21.300001,17.00625,-20.60625,watch_1
15651211674916,3.2207394,-4.6097727,3.9116669,-1.016479,0.9437861,-3.312567,-22.556252,18.337502,-24.225,watch_1
15651229342103,3.2207394,-4.6097727,3.9116669,-1.016479,0.9437861,-3.312567,-22.556252,18.337502,-24.225,watch_1
15651239342051,3.2207394,-4.6097727,3.9116669,-1.016479,0.9437861,-3.312567,-23.8125,14.56875,-20.5125,watch_1
15651235711634,3.4743786,-4.0833516,3.4426737,-1.0140356,1.0855067,-3.4432921,-23.8125,14.56875,-20.5125,watch_1
15651230748874,3.4743786,-4.0833516,3.4426737,-1.0140356,1.0855067,-3.4432921,-24.956251,15.3,-22.1625,watch_1
15651249341999,3.4743786,-4.0833516,3.4426737,-1.0140356,1.0855067,-3.4432921,-24.956251,15.3,-22.1625,watch_1
15651259341947,3.4743786,-4.0833516,3.4426737,-1.0140356,1.0855067,-3.4432921,-25.368752,15.525001,-21.956251,watch_1
15651254784655,3.7758741,-4.001996,3.2703903,-0.44837475,1.2455533,-3.5178175,-25.368752,15.525001,-21.956251,watch_1
15651249821895,3.7758741,-4.001996,3.2703903,-0.44837475,1.2455533,-3.5178175,-25.368752,15.525001,-21.956251,watch_1
15651269341895,3.7758741,-4.001996,3.2703903,-0.44837475,1.2455533,-3.5178175,-24.581251,13.387501,-23.400002,watch_1
15651279341843,3.7758741,-4.001996,3.2703903,-0.44837475,1.2455533,-3.5178175,-25.275002,12.618751,-23.98125,watch_1
15651268894916,3.5653057,-2.7242286,3.8207395,0.4178315,1.368948,-3.6118908,-25.275002,12.618751,-23.98125,watch_1
15651273857676,3.5653057,-2.7242286,3.8207395,0.4178315,1.368948,-3.6118908,-25.275002,12.618751,-23.98125,watch_1
15651289341791,3.5653057,-2.7242286,3.8207395,0.4178315,1.368948,-3.6118908,-24.937502,14.512501,-24.712502,watch_1
15651299341739,3.5653057,-2.7242286,3.8207395,0.4178315,1.368948,-3.6118908,-26.081251,10.96875,-25.06875,watch_1
15651287968874,3.3499517,-1.288535,3.667599,0.87475836,1.4703516,-3.7120726,-26.081251,10.96875,-25.06875,watch_1
15651292931634,3.3499517,-1.288535,3.667599,0.87475836,1.4703516,-3.7120726,-26.081251,10.96875,-25.06875,watch_1
15651309341686,3.3499517,-1.288535,3.667599,0.87475836,1.4703516,-3.7120726,-27.13125,8.625,-27.000002,watch_1
15651319341634,3.3499517,-1.288535,3.667599,0.87475836,1.4703516,-3.7120726,-25.85625,6.525,-26.643751,watch_1
15651311974655,3.6131623,-0.7812566,3.6628132,0.8662062,1.6181808,-3.7975936,-25.85625,6.525,-26.643751,watch_1
15651307011895,3.6131623,-0.7812566,3.6628132,0.8662062,1.6181808,-3.7975936,-25.85625,6.525,-26.643751,watch_1
15651329341582,3.6131623,-0.7812566,3.6628132,0.8662062,1.6181808,-3.7975936,-26.212502,7.4625,-26.775002,watch_1
15651339341530,3.6131623,-0.7812566,3.6628132,0.8662062,1.6181808,-3.7975936,-27.206251,3.9750001,-27.993752,watch_1
15651331047676,3.2446675,-0.58504516,3.7393837,0.8307761,1.7880012,-3.8525715,-27.206251,3.9750001,-27.993752,watch_1
15651326084916,3.2446675,-0.58504516,3.7393837,0.8307761,1.7880012,-3.8525715,-27.206251,3.9750001,-27.993752,watch_1
15651349341478,3.2446675,-0.58504516,3.7393837,0.8307761,1.7880012,-3.8525715,-27.956251,3.075,-30.468752,watch_1
15651359341426,3.2446675,-0.58504516,3.7393837,0.8307761,1.7880012,-3.8525715,-28.10625,0.20625001,-29.325,watch_1
15651345158874,3.2446675,-0.58504516,3.7393837,0.8991929,1.8894048,-3.8965538,-28.10625,0.20625001,-29.325,watch_1
15651350121634,2.1104696,-0.16390835,4.6055856,0.8991929,1.8894048,-3.8965538,-28.10625,0.20625001,-29.325,watch_1
15651369341374,2.1104696,-0.16390835,4.6055856,0.8991929,1.8894048,-3.8965538,-28.25625,0.82500005,-32.90625,watch_1
15651379341322,2.1104696,-0.16390835,4.6055856,0.92362756,1.8319834,-3.971079,-26.250002,-1.8000001,-29.94375,watch_1
15651364231895,2.1104696,-0.16390835,4.6055856,0.92362756,1.8319834,-3.971079,-26.250002,-1.8000001,-29.94375,watch_1
15651369194655,1.4500505,0.93679005,5.5866427,0.92362756,1.8319834,-3.971079,-26.250002,-1.8000001,-29.94375,watch_1
15651389341270,1.4500505,0.93679005,5.5866427,0.92362756,1.8319834,-3.971079,-28.050001,-2.6625001,-33.412502,watch_1
15651383305905,1.4500505,0.93679005,5.5866427,0.8014546,1.7146975,-4.0553784,-26.94375,-2.5687501,-30.956251,watch_1
15651399341218,1.4500505,0.93679005,5.5866427,0.8014546,1.7146975,-4.0553784,-26.94375,-2.5687501,-30.956251,watch_1
15651388268666,2.201397,2.894119,5.6584272,0.8014546,1.7146975,-4.0553784,-26.94375,-2.5687501,-30.956251,watch_1
15651409341166,2.201397,2.894119,5.6584272,0.8014546,1.7146975,-4.0553784,-27.225,-4.51875,-33.862503,watch_1
15651407341634,3.345166,3.5306098,4.093521,0.65851223,1.6768239,-4.0566,-25.743752,-6.3375,-32.49375,watch_1
15651402378874,3.345166,3.5306098,4.093521,0.65851223,1.6768239,-4.0566,-25.743752,-6.3375,-32.49375,watch_1
15651419341114,3.345166,3.5306098,4.093521,0.65851223,1.6768239,-4.0566,-25.743752,-6.3375,-32.49375,watch_1
15651429341061,3.345166,3.5306098,4.093521,0.65851223,1.6768239,-4.0566,-26.587502,-9.50625,-35.04375,watch_1
15651426415645,3.3260236,3.7363925,3.5144582,0.22968516,1.8246531,-4.071261,-23.7,-9.150001,-34.443752,watch_1
15651421452884,3.3260236,3.7363925,3.5144582,0.22968516,1.8246531,-4.071261,-23.7,-9.150001,-34.443752,watch_1
15651439341009,3.3260236,3.7363925,3.5144582,0.22968516,1.8246531,-4.071261,-23.7,-9.150001,-34.443752,watch_1
15651449340957,3.3260236,3.7363925,3.5144582,0.22968516,1.8246531,-4.071261,-24.468752,-10.33125,-36.318752,watch_1
15651440525905,2.4311078,4.358526,3.9834516,-0.20280711,2.0958772,-4.0492697,-24.468752,-10.33125,-36.318752,watch_1
15651445488666,2.4311078,4.358526,3.9834516,-0.20280711,2.0958772,-4.0492697,-24.468752,-10.33125,-36.318752,watch_1
15651459340905,2.4311078,4.358526,3.9834516,-0.20280711,2.0958772,-4.0492697,-22.987501,-13.106251,-36.15,watch_1
15651469340853,2.4311078,4.358526,3.9834516,-0.20280711,2.0958772,-4.0492697,-22.087502,-13.14375,-35.90625,watch_1
15651464562676,2.105684,6.8805614,4.5242295,-0.33964083,2.186285,-3.9014406,-22.087502,-13.14375,-35.90625,watch_1
15651459599916,2.105684,6.8805614,4.5242295,-0.33964083,2.186285,-3.9014406,-22.087502,-13.14375,-35.90625,watch_1
15651479340801,2.105684,6.8805614,4.5242295,-0.33964083,2.186285,-3.9014406,-22.96875,-11.19375,-39.24375,watch_1
15651489340749,2.105684,6.8805614,4.5242295,-0.33964083,2.186285,-3.9014406,-19.800001,-12.375001,-38.193752,watch_1
15651483635645,2.321038,8.502895,4.8065825,-0.26511532,2.2388194,-3.6131124,-19.800001,-12.375001,-38.193752,watch_1
15651478672884,2.321038,8.502895,4.8065825,-0.26511532,2.2388194,-3.6131124,-19.800001,-12.375001,-38.193752,watch_1
15651499340697,2.321038,8.502895,4.8065825,-0.26511532,2.2388194,-3.6131124,-19.650002,-14.868751,-39.525,watch_1
15651509340645,2.321038,8.502895,4.8065825,-0.26511532,2.2388194,-3.6131124,-18.225,-14.1,-39.881252,watch_1
15651497746895,2.321038,8.502895,4.8065825,-0.7513637,2.340223,-3.3565493,-18.225,-14.1,-39.881252,watch_1
15651502709655,1.6654046,8.3784685,5.395217,-0.7513637,2.340223,-3.3565493,-18.225,-14.1,-39.881252,watch_1
15651519340593,1.6654046,8.3784685,5.395217,-0.7513637,2.340223,-3.3565493,-17.04375,-14.1,-39.881252,watch_1
15651529340541,1.6654046,8.3784685,5.395217,-0.7513637,2.340223,-3.3565493,-14.812501,-12.806251,-40.48125,watch_1
15651521752676,0.7704889,8.210971,5.816354,-1.5320488,2.552804,-3.186729,-14.812501,-12.806251,-40.48125,watch_1
15651516789916,0.7704889,8.210971,5.816354,-1.5320488,2.552804,-3.186729,-14.812501,-12.806251,-40.48125,watch_1
15651539340489,0.7704889,8.210971,5.816354,-1.5320488,2.552804,-3.186729,-15.95625,-13.312501,-42.881252,watch_1
15651535862884,0.11964113,8.349754,5.725426,-2.2345433,2.7140722,-2.7847798,-13.931251,-12.806251,-40.96875,watch_1
15651540825645,0.11964113,8.349754,5.725426,-2.2345433,2.7140722,-2.7847798,-13.931251,-12.806251,-40.96875,watch_1
15651549340436,0.11964113,8.349754,5.725426,-1.5320488,2.552804,-3.186729,-13.931251,-12.806251,-40.96875,watch_1
15651559340384,0.11964113,8.349754,5.725426,-2.2345433,2.7140722,-2.7847798,-12.01875,-12.806251,-43.21875,watch_1
15651569340332,0.11964113,8.349754,5.725426,-2.561967,2.8435755,-2.2679882,-10.387501,-12.8625,-43.612503,watch_1
15651554936895,0.11964113,8.349754,5.725426,-2.561967,2.8435755,-2.2679882,-10.387501,-12.8625,-43.612503,watch_1
15651559899655,-0.6029913,8.402397,6.309275,-2.561967,2.8435755,-2.2679882,-10.387501,-12.8625,-43.612503,watch_1
15651579340280,-0.6029913,8.402397,6.309275,-2.561967,2.8435755,-2.2679882,-9.4125,-11.85,-45.1875,watch_1
15651574009916,-1.8855443,8.641679,8.094321,-2.7305655,2.7995932,-1.7084361,-9.4125,-11.85,-45.1875,watch_1
15651578972676,-1.8855443,8.641679,8.094321,-2.7305655,2.7995932,-1.7084361,-9.4125,-11.85,-45.1875,watch_1
15651589340228,-1.8855443,8.641679,8.094321,-2.7305655,2.7995932,-1.7084361,-6.2625003,-10.63125,-43.350002,watch_1
15651599340176,-1.8855443,8.641679,8.094321,-2.7305655,2.7995932,-1.7084361,-6.2625003,-10.63125,-43.350002,watch_1
15651598046634,-2.4454648,10.981859,8.525029,-3.1972663,2.67009,-1.1281146,-4.8,-8.34375,-42.24375,watch_1
15651593083874,-2.4454648,10.981859,8.525029,-3.1972663,2.67009,-1.1281146,-4.8,-8.34375,-42.24375,watch_1
15651609340124,-2.4454648,10.981859,8.525029,-3.1972663,2.67009,-1.1281146,-4.8,-8.34375,-42.24375,watch_1
15651619340072,-2.4454648,10.981859,8.525029,-3.1972663,2.67009,-1.1281146,-5.2875004,-7.4062505,-42.825,watch_1
15651617119655,-1.7754744,13.944174,9.391231,-4.2308493,2.44407,-0.31810784,-2.90625,-4.6875,-43.40625,watch_1
15651612156895,-1.7754744,13.944174,9.391231,-4.2308493,2.44407,-0.31810784,-2.90625,-4.6875,-43.40625,watch_1
15651629340020,-1.7754744,13.944174,9.391231,-4.2308493,2.44407,-0.31810784,-2.90625,-4.6875,-43.40625,watch_1
15651639339968,-1.7754744,13.944174,9.391231,-4.2308493,2.44407,-0.31810784,-2.25,-1.0125,-45.131252,watch_1
15651636193666,-0.33499518,14.906089,8.309675,-5.82765,2.15452,0.6788235,-2.25,-1.0125,-45.131252,watch_1
15651631230905,-0.33499518,14.906089,8.309675,-5.82765,2.15452,0.6788235,-2.25,-1.0125,-45.131252,watch_1
15651649339916,-0.33499518,14.906089,8.309675,-5.82765,2.15452,0.6788235,-0.76875,0.93750006,-41.9625,watch_1
15651659339864,-0.33499518,14.906089,8.309675,-5.82765,2.15452,0.6788235,1.03125,4.9875,-41.568752,watch_1
15651655266634,-0.6556334,11.144571,5.323432,-5.82765,2.15452,0.6788235,1.03125,4.9875,-41.568752,watch_1
15651650303874,-0.6556334,11.144571,5.323432,-7.457437,1.8710788,1.8455752,1.25625,9.825001,-41.86875,watch_1
15651669339811,-0.6556334,11.144571,5.323432,-7.457437,1.8710788,1.8455752,1.25625,9.825001,-41.86875,watch_1
15651679339759,-0.6556334,11.144571,5.323432,-7.457437,1.8710788,1.8455752,0.1875,10.481251,-39.600002,watch_1
15651674340645,-3.5844483,2.9036903,4.107878,-8.367626,1.5680898,2.8461716,0.1875,10.481251,-39.600002,watch_1
15651669377884,-3.5844483,2.9036903,4.107878,-8.367626,1.5680898,2.8461716,0.1875,10.481251,-39.600002,watch_1
15651689339707,-3.5844483,2.9036903,4.107878,-8.367626,1.5680898,2.8461716,1.575,16.3125,-38.98125,watch_1
15651699339655,-3.5844483,2.9036903,4.107878,-8.367626,1.5680898,2.8461716,4.03125,17.681252,-35.943752,watch_1
15651693413666,-7.30768,-8.467003,4.2131624,-8.508124,1.0879502,2.9133668,4.03125,17.681252,-35.943752,watch_1
15651688450905,-7.30768,-8.467003,4.2131624,-8.508124,1.0879502,2.9133668,4.03125,17.681252,-35.943752,watch_1
15651709339603,-7.30768,-8.467003,4.2131624,-8.508124,1.0879502,2.9133668,5.64375,22.5375,-34.912502,watch_1
15651719339551,-7.30768,-8.467003,4.2131624,-8.508124,1.0879502,2.9133668,6.9375005,22.7625,-30.862501,watch_1
15651712456634,-5.948557,-16.425531,1.9016958,-8.508124,1.0879502,2.9133668,6.9375005,22.7625,-30.862501,watch_1
15651707493874,-5.948557,-16.425531,1.9016958,-7.8911514,-0.03970621,1.706298,6.9375005,22.7625,-30.862501,watch_1
15651729339499,-5.948557,-16.425531,1.9016958,-7.8911514,-0.03970621,1.706298,3.8437502,23.362501,-31.725,watch_1
15651739339447,-5.948557,-16.425531,1.9016958,-7.8911514,-0.03970621,1.706298,5.45625,26.2875,-26.587502,watch_1
15651731530645,1.402194,-17.45923,3.5527434,-5.3145237,-1.2968659,1.322675,5.45625,26.2875,-26.587502,watch_1
15651726567884,1.402194,-17.45923,3.5527434,-5.3145237,-1.2968659,1.322675,5.45625,26.2875,-26.587502,watch_1
15651749339395,1.402194,-17.45923,3.5527434,-5.3145237,-1.2968659,1.322675,6.0937505,26.493752,-25.66875,watch_1
15651759339343,1.6701902,-12.195021,7.299904,-2.3542728,-1.395826,2.212094,7.1062503,27.468752,-25.781252,watch_1
15651750603666,1.6701902,-12.195021,7.299904,-2.3542728,-1.395826,2.212094,7.1062503,27.468752,-25.781252,watch_1
15651745640905,1.6701902,-12.195021,7.299904,-2.3542728,-1.395826,2.212094,7.1062503,27.468752,-25.781252,watch_1
15651769339291,1.6701902,-12.195021,7.299904,-2.3542728,-1.395826,2.212094,6.6562505,27.712502,-26.587502,watch_1
15651779339239,1.6701902,-12.195021,7.299904,-2.3542728,-1.395826,2.212094,6.6562505,27.393751,-24.806252,watch_1
15651769677676,0.043070808,-8.069795,8.2761755,-2.3542728,-1.395826,2.212094,6.6562505,27.393751,-24.806252,watch_1
15651764714916,0.043070808,-8.069795,8.2761755,-1.4966187,-1.4214823,1.8724532,6.6562505,27.393751,-24.806252,watch_1
15651789339186,0.043070808,-8.069795,8.2761755,-1.4966187,-1.4214823,1.8724532,6.24375,29.362501,-27.093752,watch_1
15651788750645,0.7178468,-8.663215,7.764111,-1.4966187,-1.4214823,1.8724532,6.24375,29.362501,-27.093752,watch_1
15651783787884,0.7178468,-8.663215,7.764111,-1.4514147,-1.6499457,1.1418589,5.83125,29.250002,-23.775002,watch_1
15651799339134,0.7178468,-8.663215,7.764111,-1.4514147,-1.6499457,1.1418589,5.83125,29.250002,-23.775002,watch_1
15651809339082,0.7178468,-8.663215,7.764111,-1.4514147,-1.6499457,1.1418589,6.0937505,29.175001,-25.931252,watch_1
15651807824655,1.6893328,-11.764313,6.026922,-1.4514147,-1.6499457,1.1418589,6.0937505,29.175001,-25.931252,watch_1
15651802861895,1.6893328,-11.764313,6.026922,-1.2266165,-1.8405355,0.9854776,6.0937505,29.175001,-25.931252,watch_1
15651819339030,1.6893328,-11.764313,6.026922,-1.2266165,-1.8405355,0.9854776,4.5750003,28.66875,-24.018751,watch_1
15651829338978,1.6893328,-11.764313,6.026922,-1.2266165,-1.8405355,0.9854776,4.2375,27.075,-24.337502,watch_1
15651826897676,2.1870399,-12.305091,5.892924,-1.2266165,-1.8405355,0.9854776,4.2375,27.075,-24.337502,watch_1
15651821934916,2.1870399,-12.305091,5.892924,-0.75991577,-1.8955134,0.8975131,6.1875005,28.29375,-23.643751,watch_1
15651839338926,2.1870399,-12.305091,5.892924,-0.75991577,-1.8955134,0.8975131,6.1875005,28.29375,-23.643751,watch_1
15651849338874,2.1870399,-12.305091,5.892924,-0.75991577,-1.8955134,0.8975131,7.3875003,29.400002,-21.581251,watch_1
15651845971634,0.82313097,-9.577272,6.7112694,-0.3274235,-1.7134757,1.1528546,7.3875003,29.400002,-21.581251,watch_1
15651841008874,0.82313097,-9.577272,6.7112694,-0.3274235,-1.7134757,1.1528546,7.3875003,29.400002,-21.581251,watch_1
15651859338822,0.82313097,-9.577272,6.7112694,-0.3274235,-1.7134757,1.1528546,7.8187504,24.562502,-17.868752,watch_1
15651869338770,0.82313097,-9.577272,6.7112694,-0.3274235,-1.7134757,1.1528546,8.137501,26.5125,-20.925001,watch_1
15651865044655,0.38285163,-6.748956,7.902895,0.106290475,-1.6230677,1.4253002,8.137501,26.5125,-20.925001,watch_1
15651860081895,0.38285163,-6.748956,7.902895,0.106290475,-1.6230677,1.4253002,8.137501,26.5125,-20.925001,watch_1
15651879338718,0.38285163,-6.748956,7.902895,0.106290475,-1.6230677,1.4253002,5.64375,28.781252,-23.60625,watch_1
15651889338666,0.38285163,-6.748956,7.902895,0.106290475,-1.6230677,1.4253002,8.512501,27.2625,-20.5125,watch_1
15651884118666,-0.09571291,-6.6532435,9.147162,-0.21991132,-1.5803071,1.6183335,8.512501,27.2625,-20.5125,watch_1
15651879155905,-0.09571291,-6.6532435,9.147162,-0.21991132,-1.5803071,1.6183335,8.512501,27.2625,-20.5125,watch_1
15651899338614,-0.09571291,-6.6532435,9.147162,-0.21991132,-1.5803071,1.6183335,7.2562504,28.087502,-21.1875,watch_1
15651909338561,-0.09571291,-6.6532435,9.147162,-0.21991132,-1.5803071,1.6183335,7.14375,27.093752,-21.09375,watch_1
15651903160645,0.8662018,-10.764112,9.290732,-1.2290599,-1.536325,1.3910918,7.14375,27.093752,-21.09375,watch_1
15651898197884,0.8662018,-10.764112,9.290732,-1.2290599,-1.536325,1.3910918,7.14375,27.093752,-21.09375,watch_1
15651919338509,0.8662018,-10.764112,9.290732,-1.2290599,-1.536325,1.3910918,7.93125,28.743752,-20.737501,watch_1
15651929338457,0.8662018,-10.764112,9.290732,-1.2290599,-1.536325,1.3910918,6.39375,28.087502,-19.10625,watch_1
15651917271895,2.1631117,-13.908281,8.410173,-2.1453571,-1.3274091,1.0172426,6.39375,28.087502,-19.10625,watch_1
15651922234655,2.1631117,-13.908281,8.410173,-2.1453571,-1.3274091,1.0172426,6.39375,28.087502,-19.10625,watch_1
15651939338405,2.1631117,-13.908281,8.410173,-2.1453571,-1.3274091,1.0172426,7.3500004,30.206251,-20.212502,watch_1
15651949338353,2.1631117,-13.908281,8.410173,-2.1453571,-1.3274091,1.0172426,5.8875003,28.85625,-18.9375,watch_1
15651941307676,3.397808,-14.075779,7.5296144,-1.4233149,-1.0146464,0.8144355,5.8875003,28.85625,-18.9375,watch_1
15651936344916,3.397808,-14.075779,7.5296144,-1.4233149,-1.0146464,0.8144355,5.8875003,28.85625,-18.9375,watch_1
15651959338301,3.397808,-14.075779,7.5296144,-1.4233149,-1.0146464,0.8144355,7.74375,28.25625,-19.5375,watch_1
15651969338249,3.397808,-14.075779,7.5296144,-1.4233149,-1.0146464,0.8144355,8.681251,28.518751,-19.3125,watch_1
15651960381634,3.182454,-10.30469,8.309675,0.29932374,-0.58215415,0.8339831,8.681251,28.518751,-19.3125,watch_1
15651955418874,3.182454,-10.30469,8.309675,0.29932374,-0.58215415,0.8339831,8.681251,28.518751,-19.3125,watch_1
15651979338197,3.182454,-10.30469,8.309675,0.29932374,-0.58215415,0.8339831,8.475,29.5125,-20.456251,watch_1
15651974491895,3.182454,-10.30469,8.309675,0.87475836,-0.27794346,0.98425585,8.475,29.5125,-20.456251,watch_1
15651989338145,3.182454,-10.30469,8.309675,0.87475836,-0.27794346,0.98425585,8.38125,30.056252,-20.38125,watch_1
15651979454655,1.7467605,-5.710471,10.109077,0.87475836,-0.27794346,0.98425585,8.38125,30.056252,-20.38125,watch_1
15651999338093,1.7467605,-5.710471,10.109077,0.87475836,-0.27794346,0.98425585,8.025001,29.437502,-20.212502,watch_1
15651998528666,0.3493521,-4.566702,10.601999,-0.091629714,-0.216857,1.0881029,8.025001,29.437502,-20.212502,watch_1
15651993565905,0.3493521,-4.566702,10.601999,-0.091629714,-0.216857,1.0881029,8.025001,29.437502,-20.212502,watch_1
15652009338041,0.3493521,-4.566702,10.601999,-0.091629714,-0.216857,1.0881029,8.793751,29.85,-20.737501,watch_1
15652019337989,0.3493521,-4.566702,10.601999,-0.091629714,-0.216857,1.0881029,9.4875,28.893751,-18.525002,watch_1
15652029337936,0.3493521,-4.566702,10.601999,-1.5418227,-0.1594357,0.9634865,11.2875,29.1375,-19.06875,watch_1
15652012638874,0.3493521,-4.566702,10.601999,-1.5418227,-0.1594357,0.9634865,11.2875,29.1375,-19.06875,watch_1
15652017601634,-0.23928227,-7.399804,9.683155,-1.5418227,-0.1594357,0.9634865,11.2875,29.1375,-19.06875,watch_1
15652039337884,-0.23928227,-7.399804,9.683155,-1.5418227,-0.1594357,0.9634865,10.06875,30.243752,-18.88125,watch_1
15652036675645,-0.13399807,-9.912268,7.663613,-2.1490223,-0.060475614,0.80588335,10.06875,30.243752,-18.88125,watch_1
15652031712884,-0.13399807,-9.912268,7.663613,-2.1490223,-0.060475614,0.80588335,10.06875,30.243752,-18.88125,watch_1
15652049337832,-0.13399807,-9.912268,7.663613,-2.1490223,-0.060475614,0.80588335,10.425,29.2875,-18.018751,watch_1
15652059337780,-0.13399807,-9.912268,7.663613,-2.1490223,-0.060475614,0.80588335,10.35,29.6625,-16.612501,watch_1
15652055748666,-0.45942193,-9.677772,7.299904,-1.3720022,0.19486587,0.7655663,10.35,29.6625,-16.612501,watch_1
15652050785905,-0.45942193,-9.677772,7.299904,-1.3720022,0.19486587,0.7655663,10.35,29.6625,-16.612501,watch_1
15652069337728,-0.45942193,-9.677772,7.299904,-1.3720022,0.19486587,0.7655663,11.887501,31.593752,-17.643751,watch_1
15652079337676,-0.45942193,-9.677772,7.299904,-1.3720022,0.19486587,0.7655663,11.08125,30.750002,-16.2,watch_1
15652074822676,-1.2490535,-7.8113694,9.530014,-0.5326741,0.35124725,0.82298756,11.08125,30.750002,-16.2,watch_1
15652069859916,-1.2490535,-7.8113694,9.530014,-0.5326741,0.35124725,0.82298756,11.08125,30.750002,-16.2,watch_1
15652089337624,-1.2490535,-7.8113694,9.530014,-0.5326741,0.35124725,0.82298756,11.1,29.60625,-15.95625,watch_1
15652099337572,-1.2490535,-7.8113694,9.530014,-0.5326741,0.35124725,0.82298756,12.76875,29.681252,-15.618751,watch_1
15652093865645,-1.3782659,-6.40439,10.960922,-0.70860314,0.3573559,0.73868823,12.76875,29.681252,-15.618751,watch_1
15652088902884,-1.3782659,-6.40439,10.960922,-0.70860314,0.3573559,0.73868823,12.76875,29.681252,-15.618751,watch_1
15652109337520,-1.3782659,-6.40439,10.960922,-0.70860314,0.3573559,0.73868823,13.481251,29.343752,-15.20625,watch_1
15652119337468,-1.3782659,-6.40439,10.960922,-0.70860314,0.3573559,0.73868823,12.20625,29.7,-13.500001,watch_1
15652112938666,-0.98584294,-6.715457,10.802996,-1.4208715,0.23884813,0.6727148,12.20625,29.7,-13.500001,watch_1
15652107975905,-0.98584294,-6.715457,10.802996,-1.4208715,0.23884813,0.6727148,12.20625,29.7,-13.500001,watch_1
15652129337416,-0.98584294,-6.715457,10.802996,-1.4208715,0.23884813,0.6727148,13.9875,33.768753,-14.56875,watch_1
15652139337364,-0.98584294,-6.715457,10.802996,-1.4208715,0.23884813,0.6727148,13.44375,31.556252,-13.837501,watch_1
15652132012676,-0.82313097,-8.299505,9.616156,-2.0048583,0.13255766,0.6299543,13.44375,31.556252,-13.837501,watch_1
15652127049916,-0.82313097,-8.299505,9.616156,-2.0048583,0.13255766,0.6299543,13.44375,31.556252,-13.837501,watch_1
15652149337311,-0.82313097,-8.299505,9.616156,-2.0048583,0.13255766,0.6299543,13.575001,32.550003,-12.6,watch_1
15652159338278,-0.82313097,-8.299505,9.616156,-2.0048583,0.13255766,0.6299543,14.437501,32.081253,-12.618751,watch_1
15652151085571,-1.134198,-10.582258,8.223534,-2.0488405,0.059253883,0.41737336,14.437501,32.081253,-12.618751,watch_1
15652146122132,-1.134198,-10.582258,8.223534,-2.0488405,0.059253883,0.41737336,14.437501,32.081253,-12.618751,watch_1
15652169336455,-1.134198,-10.582258,8.223534,-2.0488405,0.059253883,0.41737336,12.01875,33.3375,-13.1625,watch_1
15652170158903,-1.727618,-10.960324,7.3621173,-1.5564835,0.055588696,0.29031348,12.69375,31.143751,-11.700001,watch_1
15652165196143,-1.727618,-10.960324,7.3621173,-1.5564835,0.055588696,0.29031348,12.69375,31.143751,-11.700001,watch_1
15652179336403,-1.727618,-10.960324,7.3621173,-1.5564835,0.055588696,0.29031348,12.69375,31.143751,-11.700001,watch_1
15652189336351,-1.727618,-10.960324,7.3621173,-1.5564835,0.055588696,0.29031348,13.425,33.787502,-12.450001,watch_1
15652199336299,-1.727618,-10.960324,7.3621173,-1.5564835,0.055588696,0.29031348,12.7875,31.837502,-10.743751,watch_1
15652189231924,-1.4548361,-9.921839,7.0462646,-1.5564835,0.055588696,0.29031348,12.7875,31.837502,-10.743751,watch_1
15652184269164,-1.4548361,-9.921839,7.0462646,-0.75991577,-0.01282816,0.2451095,12.7875,31.837502,-10.743751,watch_1
15652209336247,-1.4548361,-9.921839,7.0462646,-0.75991577,-0.01282816,0.2451095,13.63125,32.8125,-11.90625,watch_1
15652203343122,-1.4548361,-9.921839,7.0462646,0.015882485,-0.14355323,0.170584,13.63125,32.8125,-11.90625,watch_1
15652219336195,-0.8997013,-8.816355,7.4386873,0.015882485,-0.14355323,0.170584,12.6,32.9625,-11.45625,watch_1
15652208305882,-0.8997013,-8.816355,7.4386873,0.015882485,-0.14355323,0.170584,12.6,32.9625,-11.45625,watch_1
15652229336143,-0.8997013,-8.816355,7.4386873,0.015882485,-0.14355323,0.170584,12.656251,33.7125,-13.125001,watch_1
15652222416143,-0.8997013,-8.816355,7.4386873,0.5534435,-0.29016078,0.18646647,12.656251,33.7125,-13.125001,watch_1
15652239336091,-0.8997013,-8.816355,7.4386873,0.5534435,-0.29016078,0.18646647,13.950001,32.662502,-9.675,watch_1
15652227378903,0.1052842,-7.428518,7.1898336,0.5534435,-0.29016078,0.18646647,13.950001,32.662502,-9.675,watch_1
15652249336039,0.1052842,-7.428518,7.1898336,0.5534435,-0.29016078,0.18646647,14.531251,33.09375,-12.993751,watch_1
15652241490153,0.1052842,-7.428518,7.1898336,0.88819736,-0.29382595,0.33307403,14.531251,33.09375,-12.993751,watch_1
15652246452914,0.44027936,-6.7058854,6.902695,0.88819736,-0.29382595,0.33307403,14.531251,33.09375,-12.993751,watch_1
15652259335987,0.44027936,-6.7058854,6.902695,0.88819736,-0.29382595,0.33307403,14.325001,32.175003,-11.175,watch_1
15652269335934,0.44027936,-6.7058854,6.902695,0.88819736,-0.29382595,0.33307403,14.043751,31.0125,-11.25,watch_1
15652265525882,0.26799613,-7.7874413,6.5868425,0.88819736,-0.29382595,0.33307403,14.043751,31.0125,-11.25,watch_1
15652260563122,0.26799613,-7.7874413,6.5868425,1.1325433,-0.2864956,0.30497423,14.043751,31.0125,-11.25,watch_1
15652279335882,0.26799613,-7.7874413,6.5868425,1.1325433,-0.2864956,0.30497423,13.05,30.50625,-13.481251,watch_1
15652289335830,0.26799613,-7.7874413,6.5868425,1.1325433,-0.2864956,0.30497423,14.062501,29.1,-14.1,watch_1
15652279606143,0.019142581,-8.744571,6.672984,1.4147629,-0.3866774,0.21334453,14.062501,29.1,-14.1,watch_1
15652284568903,0.019142581,-8.744571,6.672984,1.4147629,-0.3866774,0.21334453,14.062501,29.1,-14.1,watch_1
15652299335778,0.019142581,-8.744571,6.672984,1.4147629,-0.3866774,0.21334453,12.675,31.650002,-15.825001,watch_1
15652309335726,0.019142581,-8.744571,6.672984,1.4147629,-0.3866774,0.21334453,12.95625,30.13125,-16.06875,watch_1
15652303642914,-0.043070808,-8.534002,6.7256265,1.4147629,-0.3866774,0.21334453,12.95625,30.13125,-16.06875,watch_1
15652298680153,-0.043070808,-8.534002,6.7256265,1.892459,-0.4575377,0.16814053,14.700001,31.237501,-17.2875,watch_1
15652319335674,-0.043070808,-8.534002,6.7256265,1.892459,-0.4575377,0.16814053,14.700001,31.237501,-17.2875,watch_1
15652329335622,-0.043070808,-8.534002,6.7256265,1.892459,-0.4575377,0.16814053,14.6625,29.38125,-16.237501,watch_1
15652317753122,-0.124426775,-7.4237323,7.079764,2.2479825,-0.424551,0.12415826,14.6625,29.38125,-16.237501,watch_1
15652322715882,-0.124426775,-7.4237323,7.079764,2.2479825,-0.424551,0.12415826,14.6625,29.38125,-16.237501,watch_1
15652339335570,-0.124426775,-7.4237323,7.079764,2.2479825,-0.424551,0.12415826,13.575001,27.843752,-17.081251,watch_1
15652349335518,-0.124426775,-7.4237323,7.079764,2.2479825,-0.424551,0.12415826,13.89375,29.775002,-19.425001,watch_1
15652336827132,-0.3924229,-6.6963143,7.563114,2.1148138,-0.43676832,0.113162704,13.89375,29.775002,-19.425001,watch_1
15652341789893,-0.3924229,-6.6963143,7.563114,2.1148138,-0.43676832,0.113162704,13.89375,29.775002,-19.425001,watch_1
15652359335466,-0.3924229,-6.6963143,7.563114,2.1148138,-0.43676832,0.113162704,12.6,29.062502,-20.6625,watch_1
15652369335414,-0.3924229,-6.6963143,7.563114,2.1148138,-0.43676832,0.113162704,13.05,29.2875,-21.7875,watch_1
15652360862914,-0.43070808,-5.8827543,7.467401,1.4782928,-0.46853328,0.11438443,13.05,29.2875,-21.7875,watch_1
15652355900153,-0.43070808,-5.8827543,7.467401,1.4782928,-0.46853328,0.11438443,13.05,29.2875,-21.7875,watch_1
15652379335362,-0.43070808,-5.8827543,7.467401,1.4782928,-0.46853328,0.11438443,14.1,30.525002,-20.643751,watch_1
15652389335309,-0.43070808,-5.8827543,7.467401,1.4782928,-0.46853328,0.11438443,12.4125,28.931252,-22.125,watch_1
15652379936924,-0.7800602,-6.509674,6.1657057,0.77702,-0.45875946,0.13271037,12.4125,28.931252,-22.125,watch_1
15652374974164,-0.7800602,-6.509674,6.1657057,0.77702,-0.45875946,0.13271037,12.4125,28.931252,-22.125,watch_1
15652399335257,-0.7800602,-6.509674,6.1657057,0.77702,-0.45875946,0.13271037,12.88125,29.118752,-21.65625,watch_1
15652399009893,-0.4642076,-8.002795,6.500701,0.3347539,-0.6298016,0.11560616,12.88125,29.118752,-21.65625,watch_1
