# Session ID: 20250816_124434
# Start Time: 1755341074323
# Device ID: watch_2
# Sample Count: 3249
# Generated by Watch IMU Recorder
timestamp,accel_x,accel_y,accel_z,gyro_x,gyro_y,gyro_z,mag_x,mag_y,mag_z,watch_name
26134052868789,0.1698904,-0.109471634,9.746565,0.0,0.0,0.0,0.0,0.0,0.0,watch_2
26134072491810,0.15074782,-0.0951147,9.765707,0.0,0.0,0.0,0.0,0.0,0.0,watch_2
26134092114831,0.1363909,-0.10468599,9.75135,0.0,0.0,0.0,0.0,0.0,0.0,watch_2
26134111767799,0.15553348,-0.119042926,9.765707,0.0,0.0,0.0,0.0,0.0,0.0,watch_2
26134127288164,0.15553348,-0.119042926,9.765707,0.0,0.0,0.0,-633.1313,-237.3,-606.86255,watch_2
26134137288112,0.15553348,-0.119042926,9.765707,0.0,0.0,0.0,-630.6375,-238.01251,-604.7625,watch_2
26134126275716,0.17467605,-0.11425728,9.75135,-0.0018325944,-0.005345067,-0.0030543238,-630.6375,-238.01251,-604.7625,watch_2
26134131390820,0.17467605,-0.11425728,9.75135,-0.0018325944,-0.005345067,-0.0030543238,-632.3813,-235.6125,-608.55005,watch_2
26134147288060,0.17467605,-0.11425728,9.75135,-0.0018325944,-0.005345067,-0.0030543238,-632.3813,-235.6125,-608.55005,watch_2
26134157288008,0.17467605,-0.11425728,9.75135,-0.0018325944,-0.005345067,-0.0030543238,-632.8313,-237.58125,-604.78125,watch_2
26134151013789,0.18903299,-0.11425728,9.746565,-0.0006108648,0.00320704,-0.0018325944,-632.8313,-237.58125,-604.78125,watch_2
26134145898685,0.18903299,-0.11425728,9.746565,-0.0006108648,0.00320704,-0.0018325944,-632.8313,-237.58125,-604.78125,watch_2
26134167287956,0.18903299,-0.11425728,9.746565,-0.0006108648,0.00320704,-0.0018325944,-632.1938,-237.05626,-605.90625,watch_2
26134177287903,0.18903299,-0.11425728,9.746565,-0.0006108648,0.00320704,-0.0018325944,-632.98126,-238.5375,-607.4625,watch_2
26134170666810,0.17467605,-0.10468599,9.7609215,0.0006108648,0.0044287695,-0.0018325944,-632.98126,-238.5375,-607.4625,watch_2
26134165551706,0.17467605,-0.10468599,9.7609215,0.0006108648,0.0044287695,-0.0018325944,-632.98126,-238.5375,-607.4625,watch_2
26134187287851,0.17467605,-0.10468599,9.7609215,0.0006108648,0.0044287695,-0.0018325944,-630.54376,-235.725,-605.5688,watch_2
26134197287799,0.17467605,-0.10468599,9.7609215,0.0006108648,0.0044287695,-0.0018325944,-633.67505,-238.06876,-606.86255,watch_2
26134190289831,0.15553348,-0.0951147,9.7609215,-0.0018325944,0.00320704,-0.0018325944,-633.67505,-238.06876,-606.86255,watch_2
26134185174726,0.15553348,-0.0951147,9.7609215,-0.0018325944,0.00320704,-0.0018325944,-633.67505,-238.06876,-606.86255,watch_2
26134207287747,0.15553348,-0.0951147,9.7609215,-0.0018325944,0.00320704,-0.0018325944,-631.5,-237.18752,-608.28754,watch_2
26134217287695,0.15553348,-0.0951147,9.7609215,-0.0018325944,0.00320704,-0.0018325944,-632.73755,-239.41876,-605.025,watch_2
26134209942799,0.15074782,-0.09032906,9.765707,-0.0006108648,0.00320704,-0.0018325944,-632.73755,-239.41876,-605.025,watch_2
26134204827695,0.15074782,-0.09032906,9.765707,-0.0006108648,0.00320704,-0.0018325944,-632.73755,-239.41876,-605.025,watch_2
26134227287643,0.15074782,-0.09032906,9.765707,-0.0006108648,0.00320704,-0.0018325944,-631.7625,-235.87502,-605.98126,watch_2
26134237287591,0.15074782,-0.09032906,9.765707,-0.0006108648,0.00320704,-0.0018325944,-632.3063,-236.475,-606.86255,watch_2
26134229565820,0.16031912,-0.109471634,9.75135,-0.0018325944,-0.0004581486,-0.0018325944,-632.3063,-236.475,-606.86255,watch_2
26134224450716,0.16031912,-0.109471634,9.75135,-0.0018325944,-0.0004581486,-0.0018325944,-632.3063,-236.475,-606.86255,watch_2
26134247287539,0.16031912,-0.109471634,9.75135,-0.0018325944,-0.0004581486,-0.0018325944,-632.7,-235.8,-608.41876,watch_2
26134257287487,0.16031912,-0.109471634,9.75135,-0.0018325944,-0.0004581486,-0.0018325944,-633.5063,-235.05,-608.4375,watch_2
26134249188789,0.1794617,-0.09990034,9.756136,-0.0018325944,-0.0004581486,-0.0018325944,-633.5063,-235.05,-608.4375,watch_2
26134244073685,0.1794617,-0.09990034,9.756136,-0.0018325944,-0.0029016077,-0.0030543238,-633.5063,-235.05,-608.4375,watch_2
26134267287435,0.1794617,-0.09990034,9.756136,-0.0018325944,-0.0029016077,-0.0030543238,-633.3938,-235.1625,-609.28125,watch_2
26134277287383,0.1794617,-0.09990034,9.756136,-0.0018325944,-0.0029016077,-0.0030543238,-632.98126,-235.5375,-608.775,watch_2
26134263726706,0.18903299,-0.11425728,9.741779,-0.0006108648,0.00076358096,-0.0018325944,-632.98126,-235.5375,-608.775,watch_2
26134268841810,0.18903299,-0.11425728,9.741779,-0.0006108648,0.00076358096,-0.0018325944,-632.98126,-235.5375,-608.775,watch_2
26134287287331,0.18903299,-0.11425728,9.741779,-0.0006108648,0.00076358096,-0.0018325944,-633.28125,-237.15001,-607.78125,watch_2
26134297287278,0.18903299,-0.11425728,9.741779,-0.0006108648,0.00076358096,-0.0018325944,-633.28125,-237.15001,-607.78125,watch_2
26134288464831,0.18424734,-0.09990034,9.75135,-0.0006108648,0.00320704,-0.0018325944,-633.28125,-237.15001,-607.78125,watch_2
26134283349726,0.18424734,-0.09990034,9.75135,-0.0006108648,0.00320704,-0.0018325944,-633.28125,-237.15001,-607.78125,watch_2
26134307287226,0.18424734,-0.09990034,9.75135,-0.0006108648,0.00320704,-0.0018325944,-635.325,-234.975,-609.67505,watch_2
26134317287174,0.18424734,-0.09990034,9.75135,-0.0006108648,0.00320704,-0.0018325944,-632.9625,-235.55626,-607.7438,watch_2
26134308117799,0.16510476,-0.109471634,9.7609215,-0.0006108648,0.00320704,-0.0018325944,-632.9625,-235.55626,-607.7438,watch_2
26134303002695,0.16510476,-0.109471634,9.7609215,-0.0006108648,0.00320704,-0.0018325944,-632.9625,-235.55626,-607.7438,watch_2
26134327287122,0.16510476,-0.109471634,9.7609215,-0.0006108648,0.00320704,-0.0018325944,-632.3063,-234.88126,-609.0563,watch_2
26134337287070,0.16031912,-0.11425728,9.746565,-0.0006108648,0.00320704,-0.0018325944,-632.3063,-236.475,-606.86255,watch_2
26134327740820,0.16031912,-0.11425728,9.746565,-0.0018325944,0.0019853106,-0.0018325944,-632.3063,-236.475,-606.86255,watch_2
26134322625716,0.16031912,-0.11425728,9.746565,-0.0018325944,0.0019853106,-0.0018325944,-632.3063,-236.475,-606.86255,watch_2
26134347287018,0.16031912,-0.11425728,9.746565,-0.0018325944,0.0019853106,-0.0018325944,-632.73755,-234.63751,-609.6938,watch_2
26134347363789,0.1698904,-0.109471634,9.756136,-0.0018325944,0.00076358096,-0.0018325944,-633.5063,-236.64375,-606.97504,watch_2
26134342248685,0.1698904,-0.109471634,9.756136,-0.0018325944,0.00076358096,-0.0018325944,-633.5063,-236.64375,-606.97504,watch_2
26134357286966,0.1698904,-0.109471634,9.756136,-0.0018325944,0.00076358096,-0.0018325944,-633.5063,-236.64375,-606.97504,watch_2
26134367286914,0.1698904,-0.109471634,9.756136,-0.0018325944,0.00076358096,-0.0018325944,-633.67505,-235.21877,-608.15625,watch_2
26134377286862,0.17467605,-0.10468599,9.75135,-0.0018325944,0.00076358096,-0.0018325944,-632.8313,-235.66876,-608.5875,watch_2
26134367016810,0.17467605,-0.10468599,9.75135,-0.0018325944,-0.0004581486,-0.0018325944,-632.8313,-235.66876,-608.5875,watch_2
26134361901706,0.17467605,-0.10468599,9.75135,-0.0018325944,-0.0004581486,-0.0018325944,-632.8313,-235.66876,-608.5875,watch_2
26134387286810,0.17467605,-0.10468599,9.75135,-0.0018325944,-0.0004581486,-0.0018325944,-633.45,-235.9125,-607.7625,watch_2
26134397286758,0.17467605,-0.10468599,9.75135,-0.0006108648,0.00076358096,-0.0018325944,-633.54376,-235.50002,-607.96875,watch_2
26134386639831,0.1794617,-0.119042926,9.746565,-0.0006108648,0.00076358096,-0.0018325944,-633.54376,-235.50002,-607.96875,watch_2
26134381524726,0.17467605,-0.10468599,9.75135,-0.0006108648,0.00076358096,-0.0018325944,-633.54376,-235.50002,-607.96875,watch_2
26134407286706,0.1794617,-0.119042926,9.746565,-0.0006108648,0.00076358096,-0.0018325944,-633.46875,-235.87502,-609.22504,watch_2
26134401177695,0.1698904,-0.0951147,9.746565,-0.0006108648,0.0019853106,-0.0018325944,-633.9563,-234.95625,-608.6438,watch_2
26134417286653,0.1698904,-0.0951147,9.746565,-0.0006108648,0.0019853106,-0.0018325944,-633.9563,-234.95625,-608.6438,watch_2
26134406292799,0.1698904,-0.0951147,9.746565,-0.0006108648,0.0019853106,-0.0018325944,-633.9563,-234.95625,-608.6438,watch_2
26134427286601,0.1698904,-0.0951147,9.746565,-0.0006108648,0.0019853106,-0.0018325944,-633.5063,-236.64375,-606.6938,watch_2
26134420800716,0.16510476,-0.09032906,9.7609215,-0.0006108648,0.0019853106,-0.0018325944,-633.5063,-236.32501,-608.7563,watch_2
26134425915820,0.16510476,-0.09032906,9.7609215,-0.0006108648,0.0019853106,-0.0018325944,-633.5063,-236.32501,-608.7563,watch_2
26134437286549,0.16510476,-0.09032906,9.7609215,-0.0006108648,0.0019853106,-0.0018325944,-633.91876,-235.78127,-610.16254,watch_2
26134447286497,0.16510476,-0.09032906,9.7609215,-0.0006108648,0.0019853106,-0.0018325944,-633.91876,-235.78127,-610.16254,watch_2
26134445538789,0.16031912,-0.10468599,9.746565,-0.0018325944,0.0019853106,-0.0018325944,-632.5875,-234.7875,-608.5125,watch_2
26134440423685,0.16031912,-0.10468599,9.746565,-0.0018325944,0.0019853106,-0.0018325944,-632.5875,-234.7875,-608.5125,watch_2
26134457286445,0.16031912,-0.10468599,9.746565,-0.0018325944,0.0019853106,-0.0018325944,-632.5875,-234.7875,-608.5125,watch_2
26134467286393,0.16031912,-0.10468599,9.746565,-0.0018325944,0.0019853106,-0.0018325944,-631.91254,-235.74376,-606.15,watch_2
26134460076706,0.1698904,-0.11425728,9.746565,-0.0018325944,-0.0004581486,-0.0018325944,-632.71875,-233.41876,-607.6313,watch_2
26134477286341,0.1698904,-0.11425728,9.746565,-0.0018325944,-0.0004581486,-0.0018325944,-632.71875,-233.41876,-607.6313,watch_2
26134465191810,0.1698904,-0.11425728,9.746565,-0.0018325944,-0.0004581486,-0.0018325944,-632.71875,-233.41876,-607.6313,watch_2
26134487286289,0.1698904,-0.11425728,9.746565,-0.0018325944,-0.0004581486,-0.0018325944,-632.15625,-236.2875,-608.8875,watch_2
26134479699726,0.1698904,-0.123828575,9.741779,-0.0018325944,0.00076358096,-0.0018325944,-632.15625,-236.2875,-608.8875,watch_2
26134497286237,0.1698904,-0.123828575,9.741779,-0.0018325944,0.00076358096,-0.0018325944,-631.72504,-235.57501,-606.0,watch_2
26134484814831,0.1698904,-0.123828575,9.741779,-0.0018325944,0.00076358096,-0.0018325944,-631.72504,-235.57501,-606.0,watch_2
26134507286185,0.1698904,-0.123828575,9.741779,-0.0018325944,0.00076358096,-0.0018325944,-633.41254,-235.63126,-607.5,watch_2
26134499352695,0.17467605,-0.10468599,9.746565,-0.0006108648,0.0019853106,-0.0018325944,-633.41254,-235.63126,-607.5,watch_2
26134504467799,0.17467605,-0.10468599,9.746565,-0.0006108648,0.0019853106,-0.0018325944,-633.41254,-235.63126,-607.5,watch_2
26134517286133,0.17467605,-0.10468599,9.746565,-0.0006108648,0.0019853106,-0.0018325944,-631.35004,-234.675,-606.6375,watch_2
26134527286081,0.17467605,-0.10468599,9.746565,-0.0006108648,0.0019853106,-0.0018325944,-634.95,-235.95001,-608.5125,watch_2
26134524090820,0.16510476,-0.09990034,9.746565,-0.0006108648,0.0019853106,-0.0018325944,-634.95,-235.95001,-608.5125,watch_2
26134518975716,0.16510476,-0.09990034,9.746565,-0.0006108648,0.0019853106,-0.0018325944,-631.575,-236.6625,-607.1813,watch_2
26134537286028,0.16510476,-0.09990034,9.746565,-0.0006108648,0.0019853106,-0.0018325944,-631.575,-236.6625,-607.1813,watch_2
26134547285976,0.16510476,-0.09990034,9.746565,-0.0006108648,0.0019853106,-0.0018325944,-633.9,-235.8,-608.41876,watch_2
26134538598685,0.16031912,-0.0951147,9.741779,-0.0018325944,0.0019853106,-0.0018325944,-634.9313,-235.65001,-608.8313,watch_2
26134543713789,0.16031912,-0.0951147,9.741779,-0.0018325944,0.0019853106,-0.0018325944,-633.9,-235.8,-608.41876,watch_2
26134557285924,0.16031912,-0.0951147,9.741779,-0.0018325944,0.0019853106,-0.0018325944,-634.9313,-235.65001,-608.8313,watch_2
26134567285872,0.16031912,-0.0951147,9.741779,-0.0018325944,0.0019853106,-0.0018325944,-633.8063,-234.7875,-609.525,watch_2
26134563366810,0.17467605,-0.09990034,9.7609215,-0.0006108648,0.00076358096,-0.0018325944,-633.8063,-234.7875,-609.525,watch_2
26134558251706,0.17467605,-0.09990034,9.7609215,-0.0006108648,0.00076358096,-0.0018325944,-633.8063,-234.7875,-609.525,watch_2
26134577285820,0.17467605,-0.09990034,9.7609215,-0.0006108648,0.00076358096,-0.0018325944,-632.10004,-235.85626,-608.4938,watch_2
26134587285768,0.17467605,-0.09990034,9.7609215,-0.0006108648,0.00076358096,-0.0018325944,-631.8375,-234.69376,-608.71875,watch_2
26134577874726,0.1794617,-0.12861422,9.741779,-0.0018325944,0.00076358096,-0.0018325944,-631.98755,-234.8625,-607.5563,watch_2
26134582989831,0.1794617,-0.12861422,9.741779,-0.0018325944,0.00076358096,-0.0018325944,-631.98755,-234.8625,-607.5563,watch_2
26134597285716,0.1794617,-0.12861422,9.741779,-0.0018325944,0.00076358096,-0.0018325944,-631.98755,-234.8625,-607.5563,watch_2
26134607285664,0.1794617,-0.12861422,9.741779,-0.0018325944,0.00076358096,-0.0018325944,-632.34375,-235.65001,-606.8063,watch_2
26134597527695,0.17467605,-0.123828575,9.741779,-0.0006108648,0.0019853106,-0.0018325944,-632.34375,-235.65001,-606.8063,watch_2
26134602642799,0.17467605,-0.123828575,9.741779,-0.0006108648,0.0019853106,-0.0018325944,-632.34375,-235.65001,-606.8063,watch_2
26134617285612,0.17467605,-0.123828575,9.741779,-0.0006108648,0.0019853106,-0.0018325944,-633.4313,-234.31876,-608.79376,watch_2
26134627285560,0.17467605,-0.123828575,9.741779,-0.0006108648,0.0019853106,-0.0018325944,-632.625,-234.75002,-610.2563,watch_2
26134622265820,0.16510476,-0.11425728,9.741779,-0.0006108648,0.0019853106,-0.0018325944,-632.625,-234.75002,-610.2563,watch_2
26134617150716,0.16510476,-0.11425728,9.741779,-0.0006108648,0.00320704,-0.0018325944,-632.625,-234.75002,-610.2563,watch_2
26134637285508,0.16510476,-0.11425728,9.741779,-0.0006108648,0.00320704,-0.0018325944,-633.9,-234.225,-609.73126,watch_2
26134647285456,0.16510476,-0.11425728,9.741779,-0.0006108648,0.00320704,-0.0018325944,-632.775,-235.40627,-606.86255,watch_2
26134641888789,0.16510476,-0.09032906,9.727423,0.0006108648,0.0019853106,-0.0018325944,-632.775,-235.40627,-606.86255,watch_2
26134636773685,0.16510476,-0.09032906,9.727423,0.0006108648,0.0019853106,-0.0018325944,-632.775,-235.40627,-606.86255,watch_2
26134657285403,0.16510476,-0.09032906,9.727423,0.0006108648,0.0019853106,-0.0018325944,-632.325,-235.35,-607.10626,watch_2
26134667285351,0.16510476,-0.09032906,9.727423,0.0006108648,0.0019853106,-0.0018325944,-633.5625,-236.90627,-607.96875,watch_2
26134661541810,0.14117654,-0.07597212,9.746565,0.0006108648,0.00320704,-0.0018325944,-633.5625,-236.90627,-607.96875,watch_2
26134656426706,0.14117654,-0.07597212,9.746565,0.0006108648,0.00320704,-0.0018325944,-633.9,-234.71251,-607.21875,watch_2
26134677285299,0.14117654,-0.07597212,9.746565,0.0006108648,0.00320704,-0.0018325944,-633.9,-234.71251,-607.21875,watch_2
26134687285247,0.14117654,-0.07597212,9.746565,0.0006108648,0.00320704,-0.0018325944,-635.3063,-234.99376,-608.9438,watch_2
26134681164831,0.15553348,-0.08075777,9.780065,-0.0006108648,0.0019853106,-0.0030543238,-635.3063,-234.99376,-608.9438,watch_2
26134676049726,0.15553348,-0.08075777,9.780065,-0.0006108648,0.0019853106,-0.0030543238,-635.3063,-234.99376,-608.9438,watch_2
26134697285195,0.15553348,-0.08075777,9.780065,-0.0006108648,0.0019853106,-0.0030543238,-632.36255,-235.96877,-605.3063,watch_2
26134707285143,0.15553348,-0.08075777,9.780065,-0.0006108648,0.0019853106,-0.0030543238,-632.36255,-236.7375,-608.5875,watch_2
26134700818789,0.18903299,-0.13339986,9.741779,-0.0006108648,0.0019853106,-0.0030543238,-632.36255,-236.7375,-608.5875,watch_2
26134695703685,0.18903299,-0.13339986,9.741779,-0.0042760535,-0.004123337,-0.0030543238,-632.36255,-236.7375,-608.5875,watch_2
26134717285091,0.18903299,-0.13339986,9.741779,-0.0042760535,-0.004123337,-0.0030543238,-632.90625,-234.80626,-609.5625,watch_2
26134727285039,0.18903299,-0.13339986,9.741779,-0.0042760535,-0.004123337,-0.0030543238,-632.15625,-235.03127,-607.40625,watch_2
26134720440820,0.18424734,-0.14297116,9.746565,-0.0042760535,-0.004123337,-0.0030543238,-632.15625,-235.03127,-607.40625,watch_2
26134715325716,0.18424734,-0.14297116,9.746565,-0.0018325944,-0.0004581486,-0.0018325944,-632.775,-234.93752,-609.3938,watch_2
26134737284987,0.18424734,-0.14297116,9.746565,-0.0018325944,-0.0004581486,-0.0018325944,-632.775,-234.93752,-609.3938,watch_2
26134747284935,0.18424734,-0.14297116,9.746565,-0.0018325944,-0.0004581486,-0.0018325944,-631.96875,-234.88126,-607.125,watch_2
26134740063789,0.17467605,-0.119042926,9.732208,-0.0018325944,-0.0004581486,-0.0018325944,-631.96875,-234.88126,-607.125,watch_2
26134734948685,0.17467605,-0.119042926,9.732208,-0.0006108648,0.0044287695,-0.0018325944,-631.96875,-234.88126,-607.125,watch_2
26134767284831,0.17467605,-0.119042926,9.732208,-0.0006108648,0.0044287695,-0.0018325944,-632.47504,-236.62502,-607.72504,watch_2
26134757284883,0.17467605,-0.119042926,9.732208,-0.0006108648,0.0044287695,-0.0018325944,-632.47504,-236.62502,-607.72504,watch_2
26134759716810,0.14117654,-0.09990034,9.746565,-0.0006108648,0.0044287695,-0.0018325944,-632.47504,-236.62502,-607.72504,watch_2
26134754601706,0.14117654,-0.09990034,9.746565,0.0006108648,0.0044287695,-0.0018325944,-632.47504,-236.62502,-607.72504,watch_2
26134777284778,0.14117654,-0.09990034,9.746565,0.0006108648,0.0019853106,-0.0018325944,-634.48126,-234.46877,-608.17505,watch_2
26134787284726,0.14117654,-0.09990034,9.746565,0.0006108648,0.0019853106,-0.0018325944,-634.35004,-234.28127,-610.21875,watch_2
26134774224726,0.14117654,-0.09990034,9.746565,0.0006108648,0.0019853106,-0.0018325944,-634.35004,-234.28127,-610.21875,watch_2
26134797284674,0.14117654,-0.09990034,9.746565,0.0006108648,0.0019853106,-0.0018325944,-633.6938,-235.20001,-608.8875,watch_2
26134807284622,0.14596218,-0.08554341,9.746565,0.0006108648,0.0019853106,-0.0018325944,-632.23126,-235.425,-609.1313,watch_2
26134779339831,0.14596218,-0.08554341,9.746565,0.0006108648,0.0019853106,-0.0018325944,-632.23126,-235.425,-609.1313,watch_2
26134793878685,0.16510476,-0.0951147,9.736994,-0.0018325944,-0.0004581486,-0.0018325944,-632.23126,-235.425,-609.1313,watch_2
26134798993789,0.16510476,-0.0951147,9.736994,-0.0018325944,-0.0004581486,-0.0018325944,-632.23126,-235.425,-609.1313,watch_2
26134817284570,0.16510476,-0.0951147,9.736994,-0.0018325944,-0.0004581486,-0.0018325944,-633.4313,-234.33751,-608.5125,watch_2
26134827284518,0.16510476,-0.0951147,9.736994,-0.0018325944,-0.0004581486,-0.0018325944,-632.5875,-234.7875,-608.79376,watch_2
26134818615820,0.18424734,-0.11425728,9.75135,-0.0006108648,-0.0016798781,-0.0018325944,-632.5875,-234.7875,-608.79376,watch_2
26134813500716,0.18424734,-0.11425728,9.75135,-0.0006108648,-0.0016798781,-0.0018325944,-632.5875,-235.68752,-607.85626,watch_2
26134837284466,0.18424734,-0.11425728,9.75135,-0.0006108648,-0.0016798781,-0.0018325944,-632.8313,-235.68752,-607.85626,watch_2
26134847284414,0.1794617,-0.13339986,9.75135,-0.0030543238,-0.0004581486,-0.0018325944,-631.3313,-237.37502,-605.6438,watch_2
26134833123685,0.1794617,-0.13339986,9.75135,-0.0030543238,-0.0004581486,-0.0018325944,-631.3313,-237.37502,-605.6438,watch_2
26134838238789,0.1794617,-0.13339986,9.75135,-0.0030543238,-0.0004581486,-0.0018325944,-631.3313,-237.37502,-605.6438,watch_2
26134857284362,0.1794617,-0.13339986,9.75135,-0.0030543238,-0.0004581486,-0.0018325944,-633.3938,-235.1625,-609.28125,watch_2
26134867284310,0.1794617,-0.13339986,9.746565,-0.0030543238,-0.0004581486,-0.0018325944,-632.4375,-236.3625,-607.03125,watch_2
26134852776706,0.1794617,-0.13339986,9.746565,-0.0006108648,0.0019853106,-0.0018325944,-632.4375,-236.3625,-607.03125,watch_2
26134857891810,0.1794617,-0.13339986,9.746565,-0.0006108648,0.0019853106,-0.0018325944,-632.4375,-236.3625,-607.03125,watch_2
26134877284258,0.1794617,-0.13339986,9.746565,-0.0006108648,0.0019853106,-0.0018325944,-631.3875,-234.61876,-608.6813,watch_2
26134887284206,0.16031912,-0.123828575,9.727423,-0.0006108648,0.0019853106,-0.0018325944,-634.7063,-236.175,-609.7688,watch_2
26134872399726,0.16031912,-0.123828575,9.727423,-0.0018325944,0.0044287695,-0.0018325944,-634.7063,-236.175,-609.7688,watch_2
26134877514831,0.16031912,-0.123828575,9.727423,-0.0018325944,0.0044287695,-0.0018325944,-634.7063,-236.175,-609.7688,watch_2
26134897284153,0.16031912,-0.123828575,9.727423,-0.0018325944,0.0044287695,-0.0018325944,-631.0875,-236.475,-606.28125,watch_2
26134907284101,0.14596218,-0.08554341,9.756136,-0.0018325944,0.0044287695,-0.0018325944,-633.3938,-235.1625,-609.28125,watch_2
26134897168789,0.14596218,-0.08554341,9.756136,-0.0018325944,0.0044287695,-0.0018325944,-633.3938,-235.1625,-609.28125,watch_2
26134892053685,0.14596218,-0.08554341,9.756136,0.0030543238,0.0044287695,-0.0018325944,-633.3938,-235.1625,-609.28125,watch_2
26134917284049,0.14596218,-0.08554341,9.756136,0.0030543238,0.0044287695,-0.0018325944,-634.4438,-233.88751,-608.9625,watch_2
26134927283997,0.15553348,-0.08554341,9.732208,0.0030543238,0.0044287695,-0.0018325944,-632.90625,-235.12502,-607.78125,watch_2
26134916790820,0.15553348,-0.08554341,9.732208,-0.0018325944,0.00076358096,-0.0018325944,-632.90625,-235.12502,-607.78125,watch_2
26134911675716,0.15553348,-0.08554341,9.732208,-0.0018325944,0.00076358096,-0.0018325944,-632.90625,-235.12502,-607.78125,watch_2
26134937283945,0.15553348,-0.08554341,9.732208,-0.0018325944,0.00076358096,-0.0018325944,-633.0188,-235.8,-609.91876,watch_2
26134936413789,0.17467605,-0.09990034,9.75135,-0.0006108648,-0.0029016077,-0.0030543238,-633.0188,-235.8,-609.91876,watch_2
26134931298685,0.17467605,-0.09990034,9.75135,-0.0006108648,-0.0029016077,-0.0030543238,-632.6813,-235.48126,-609.46875,watch_2
26134947283893,0.17467605,-0.09990034,9.75135,-0.0006108648,-0.0029016077,-0.0030543238,-632.6813,-235.48126,-609.46875,watch_2
26134957283841,0.17467605,-0.09990034,9.75135,-0.0006108648,-0.0029016077,-0.0030543238,-634.72504,-235.03127,-609.75,watch_2
26134956067799,0.19381863,-0.123828575,9.717851,-0.0006108648,-0.0029016077,-0.0030543238,-634.72504,-235.03127,-609.75,watch_2
26134950952695,0.19381863,-0.123828575,9.717851,-0.0042760535,-0.0016798781,-0.0018325944,-633.0,-234.26251,-609.1875,watch_2
26134967283789,0.19381863,-0.123828575,9.717851,-0.0042760535,-0.0016798781,-0.0018325944,-633.0,-234.26251,-609.1875,watch_2
26134977283737,0.19381863,-0.123828575,9.717851,-0.0042760535,-0.0016798781,-0.0018325944,-633.0,-234.26251,-609.1875,watch_2
26134970574726,0.19381863,-0.123828575,9.717851,-0.0006108648,0.0019853106,-0.0018325944,-633.0,-234.26251,-609.1875,watch_2
26134987283685,0.19381863,-0.123828575,9.717851,-0.0006108648,0.0019853106,-0.0018325944,-628.53754,-236.60626,-604.5188,watch_2
26134975689831,0.1794617,-0.119042926,9.736994,-0.0006108648,0.0019853106,-0.0018325944,-628.53754,-236.60626,-604.5188,watch_2
26134997283633,0.1794617,-0.119042926,9.736994,-0.0006108648,0.0019853106,-0.0018325944,-628.53754,-236.60626,-604.5188,watch_2
26134990197695,0.16031912,-0.11425728,9.741779,-0.0006108648,0.0056504994,-0.0018325944,-628.53754,-236.60626,-604.5188,watch_2
26134995312799,0.16031912,-0.11425728,9.741779,-0.0006108648,0.0056504994,-0.0018325944,-630.46875,-237.84377,-605.34375,watch_2
26135007283581,0.16031912,-0.11425728,9.741779,-0.0006108648,0.0056504994,-0.0018325944,-630.46875,-237.84377,-605.34375,watch_2
26135017283528,0.16031912,-0.11425728,9.741779,-0.0006108648,0.0056504994,-0.0018325944,-633.9563,-235.27501,-607.16254,watch_2
26135014965820,0.15074782,-0.09990034,9.765707,0.0006108648,0.0056504994,-0.0018325944,-633.9563,-235.27501,-607.16254,watch_2
26135027283476,0.15074782,-0.09990034,9.765707,0.0006108648,0.0056504994,-0.0018325944,-633.8063,-236.3625,-608.4938,watch_2
26135009850716,0.15074782,-0.09990034,9.765707,0.0006108648,0.0056504994,-0.0018325944,-633.8063,-236.3625,-608.4938,watch_2
26135037283424,0.15074782,-0.09990034,9.765707,0.0006108648,0.0056504994,-0.0018325944,-632.2688,-236.19376,-606.5813,watch_2
26135029473685,0.16031912,-0.0951147,9.736994,-0.0030543238,-0.0004581486,-0.0018325944,-632.025,-236.7375,-606.8063,watch_2
26135034588789,0.16031912,-0.0951147,9.736994,-0.0030543238,-0.0004581486,-0.0018325944,-632.2688,-236.19376,-606.5813,watch_2
26135047283372,0.16031912,-0.0951147,9.736994,-0.0030543238,-0.0004581486,-0.0018325944,-632.025,-236.7375,-606.8063,watch_2
26135057283320,0.16031912,-0.0951147,9.736994,-0.0030543238,-0.0004581486,-0.0018325944,-631.72504,-235.25626,-607.48126,watch_2
26135054242799,0.1794617,-0.11425728,9.746565,-0.0030543238,-0.004123337,-0.0018325944,-631.72504,-235.25626,-607.48126,watch_2
26135049127695,0.1794617,-0.11425728,9.746565,-0.0030543238,-0.004123337,-0.0018325944,-630.6375,-236.41876,-606.525,watch_2
26135067283268,0.1794617,-0.11425728,9.746565,-0.0030543238,-0.004123337,-0.0018325944,-630.6375,-236.41876,-606.525,watch_2
26135077283216,0.1794617,-0.11425728,9.746565,-0.0030543238,-0.004123337,-0.0018325944,-632.6438,-235.5375,-606.9938,watch_2
26135073864831,0.19860429,-0.12861422,9.732208,-0.0006108648,-0.0004581486,-0.0030543238,-632.6438,-235.5375,-606.9938,watch_2
26135068749726,0.19860429,-0.12861422,9.732208,-0.0006108648,-0.0004581486,-0.0030543238,-630.9375,-235.9875,-608.4938,watch_2
26135087283164,0.19860429,-0.12861422,9.732208,-0.0006108648,-0.0004581486,-0.0030543238,-630.9375,-235.9875,-608.4938,watch_2
26135097283112,0.19860429,-0.12861422,9.732208,-0.0006108648,-0.0004581486,-0.0030543238,-632.17505,-234.99376,-609.45,watch_2
26135093487799,0.17467605,-0.109471634,9.722636,-0.0006108648,-0.0004581486,-0.0030543238,-632.17505,-234.99376,-609.45,watch_2
26135088372695,0.17467605,-0.109471634,9.722636,-0.0006108648,0.00320704,-0.0018325944,-632.17505,-234.99376,-609.45,watch_2
26135107283060,0.17467605,-0.109471634,9.722636,-0.0006108648,0.00320704,-0.0018325944,-632.2125,-237.0375,-606.9375,watch_2
26135117283008,0.17467605,-0.109471634,9.722636,-0.0006108648,0.00320704,-0.0018325944,-631.5188,-237.50626,-606.8063,watch_2
26135108026706,0.16510476,-0.0951147,9.75135,0.0018325944,0.0056504994,-0.0018325944,-631.5188,-237.50626,-606.8063,watch_2
26135113141810,0.16510476,-0.0951147,9.75135,0.0018325944,0.0056504994,-0.0018325944,-633.8813,-235.81876,-607.6875,watch_2
26135127282956,0.16510476,-0.0951147,9.75135,0.0018325944,0.0056504994,-0.0018325944,-633.8813,-235.81876,-607.6875,watch_2
26135137282903,0.16510476,-0.0951147,9.75135,0.0018325944,0.0056504994,-0.0018325944,-632.92505,-236.70001,-607.05005,watch_2
26135132763789,0.15074782,-0.0951147,9.746565,-0.0018325944,0.00320704,-0.0018325944,-632.92505,-236.70001,-607.05005,watch_2
26135127648685,0.15074782,-0.0951147,9.746565,-0.0018325944,0.00320704,-0.0018325944,-631.48126,-235.65001,-607.85626,watch_2
26135147282851,0.15074782,-0.0951147,9.746565,-0.0018325944,0.00320704,-0.0018325944,-631.48126,-235.65001,-607.85626,watch_2
26135157282799,0.15074782,-0.0951147,9.746565,-0.0018325944,0.00320704,-0.0018325944,-630.6188,-236.11876,-607.275,watch_2
26135152417799,0.1698904,-0.109471634,9.736994,-0.0006108648,-0.0004581486,-0.0018325944,-630.6188,-236.11876,-607.275,watch_2
26135147302695,0.1698904,-0.109471634,9.736994,-0.0006108648,-0.0004581486,-0.0018325944,-630.6188,-236.11876,-607.275,watch_2
26135167282747,0.1698904,-0.109471634,9.736994,-0.0006108648,-0.0004581486,-0.0018325944,-632.8688,-234.52501,-609.30005,watch_2
26135177282695,0.1698904,-0.109471634,9.736994,-0.0006108648,-0.0004581486,-0.0018325944,-631.80005,-233.15627,-607.7063,watch_2
26135172039831,0.17467605,-0.123828575,9.727423,-0.0030543238,-0.0016798781,-0.0018325944,-631.80005,-233.15627,-607.7063,watch_2
26135166924726,0.17467605,-0.123828575,9.727423,-0.0030543238,-0.0016798781,-0.0018325944,-631.80005,-233.15627,-607.7063,watch_2
26135187282643,0.17467605,-0.123828575,9.727423,-0.0030543238,-0.0016798781,-0.0018325944,-631.0875,-234.88126,-607.8938,watch_2
26135197282591,0.1794617,-0.119042926,9.736994,-0.0030543238,-0.0016798781,-0.0018325944,-634.65,-235.57501,-610.2563,watch_2
26135191662799,0.1794617,-0.119042926,9.736994,-0.0006108648,-0.0004581486,-0.0018325944,-634.65,-235.57501,-610.2563,watch_2
26135186547695,0.1794617,-0.119042926,9.736994,-0.0006108648,-0.0004581486,-0.0018325944,-634.65,-235.57501,-610.2563,watch_2
26135207282539,0.1794617,-0.119042926,9.736994,-0.0006108648,-0.0004581486,-0.0018325944,-631.59375,-236.32501,-609.6938,watch_2
26135217282487,0.1794617,-0.119042926,9.736994,-0.0006108648,-0.0004581486,-0.0018325944,-633.91876,-235.78127,-609.4313,watch_2
26135211316810,0.1794617,-0.0951147,9.746565,-0.0006108648,0.00320704,-0.0018325944,-633.91876,-235.78127,-609.4313,watch_2
26135206201706,0.1794617,-0.0951147,9.746565,-0.0006108648,0.00320704,-0.0018325944,-633.91876,-235.78127,-609.4313,watch_2
26135227282435,0.1794617,-0.0951147,9.746565,-0.0006108648,0.00320704,-0.0018325944,-632.8875,-234.50626,-610.3125,watch_2
26135237282383,0.1794617,-0.0951147,9.746565,-0.0006108648,0.00320704,-0.0018325944,-633.3188,-234.6,-608.60626,watch_2
26135230938789,0.16031912,-0.09032906,9.732208,-0.0006108648,0.0044287695,-0.0018325944,-633.3188,-234.6,-608.60626,watch_2
26135225823685,0.16031912,-0.09032906,9.732208,-0.0006108648,0.0044287695,-0.0018325944,-633.3188,-234.6,-608.60626,watch_2
26135247282331,0.16031912,-0.09032906,9.732208,-0.0006108648,0.0044287695,-0.0018325944,-634.125,-236.40001,-608.8125,watch_2
26135257282278,0.16031912,-0.09032906,9.732208,-0.0006108648,0.0044287695,-0.0018325944,-635.2688,-236.13751,-608.25,watch_2
26135250592799,0.15553348,-0.10468599,9.746565,-0.0006108648,0.0044287695,-0.0018325944,-635.2688,-236.13751,-608.25,watch_2
26135245477695,0.15553348,-0.10468599,9.746565,-0.0006108648,0.0019853106,-0.0018325944,-635.2688,-236.13751,-608.25,watch_2
26135267282226,0.15553348,-0.10468599,9.746565,-0.0006108648,0.0019853106,-0.0018325944,-634.6313,-235.59377,-609.2438,watch_2
26135277282174,0.15553348,-0.10468599,9.746565,-0.0006108648,0.0019853106,-0.0018325944,-632.625,-233.96251,-607.275,watch_2
26135270214831,0.16510476,-0.11425728,9.741779,-0.0030543238,-0.0004581486,-0.0018325944,-632.625,-233.96251,-607.275,watch_2
26135265099726,0.16510476,-0.11425728,9.741779,-0.0030543238,-0.0004581486,-0.0018325944,-632.625,-233.96251,-607.275,watch_2
26135287282122,0.16510476,-0.11425728,9.741779,-0.0030543238,-0.0004581486,-0.0018325944,-630.84375,-235.59377,-606.48755,watch_2
26135297282070,0.16510476,-0.11425728,9.741779,-0.0030543238,-0.0004581486,-0.0018325944,-633.6188,-236.06252,-607.91254,watch_2
26135289837799,0.19381863,-0.123828575,9.736994,-0.0018325944,-0.0016798781,-0.0018325944,-633.6188,-236.06252,-607.91254,watch_2
26135284722695,0.19381863,-0.123828575,9.736994,-0.0018325944,-0.0016798781,-0.0018325944,-633.6188,-236.06252,-607.91254,watch_2
26135307282018,0.19381863,-0.123828575,9.736994,-0.0018325944,-0.0016798781,-0.0018325944,-635.25,-234.26251,-609.73126,watch_2
26135317281966,0.19381863,-0.123828575,9.736994,-0.0018325944,-0.0016798781,-0.0018325944,-633.41254,-235.6125,-607.80005,watch_2
26135309491810,0.18903299,-0.123828575,9.727423,-0.0018325944,0.00076358096,-0.0018325944,-633.41254,-235.6125,-607.80005,watch_2
26135304376706,0.18903299,-0.123828575,9.727423,-0.0018325944,0.00076358096,-0.0018325944,-633.41254,-235.6125,-607.80005,watch_2
26135327281914,0.18903299,-0.123828575,9.727423,-0.0018325944,0.00076358096,-0.0018325944,-633.5813,-234.20625,-608.6813,watch_2
26135337281862,0.18903299,-0.123828575,9.727423,-0.0018325944,0.00076358096,-0.0018325944,-633.41254,-234.35626,-607.3313,watch_2
26135329113789,0.16510476,-0.10468599,9.736994,-0.0006108648,0.0044287695,-0.0018325944,-633.41254,-234.35626,-607.3313,watch_2
26135323998685,0.16510476,-0.10468599,9.736994,-0.0006108648,0.0044287695,-0.0018325944,-633.41254,-234.35626,-607.3313,watch_2
26135347281810,0.16510476,-0.10468599,9.736994,-0.0006108648,0.0044287695,-0.0018325944,-633.7125,-234.07501,-609.28125,watch_2
26135357281758,0.16510476,-0.10468599,9.736994,-0.0006108648,0.0044287695,-0.0018325944,-634.29376,-235.12502,-609.825,watch_2
26135348767799,0.16031912,-0.09990034,9.736994,-0.0006108648,0.0044287695,-0.0018325944,-634.29376,-235.12502,-609.825,watch_2
26135343652695,0.16031912,-0.09990034,9.736994,0.0006108648,0.0019853106,-0.0018325944,-634.29376,-235.12502,-609.825,watch_2
26135367281706,0.16031912,-0.09990034,9.736994,0.0006108648,0.0019853106,-0.0018325944,-632.73755,-234.95625,-607.9313,watch_2
26135377281653,0.16031912,-0.09990034,9.736994,0.0006108648,0.0019853106,-0.0018325944,-634.48126,-235.74376,-608.625,watch_2
26135363275716,0.1698904,-0.09990034,9.741779,-0.0006108648,0.00076358096,-0.0018325944,-634.48126,-235.74376,-608.625,watch_2
26135368390820,0.1698904,-0.09990034,9.741779,-0.0006108648,0.00076358096,-0.0018325944,-634.48126,-235.74376,-608.625,watch_2
26135387281601,0.1698904,-0.09990034,9.741779,-0.0006108648,0.00076358096,-0.0018325944,-633.22504,-236.41876,-608.5688,watch_2
26135397281549,0.1698904,-0.119042926,9.746565,-0.0018325944,0.00076358096,-0.0018325944,-632.1938,-234.20625,-606.91876,watch_2
26135388012799,0.1698904,-0.119042926,9.746565,-0.0018325944,0.00076358096,-0.0018325944,-632.1938,-234.20625,-606.91876,watch_2
26135382897695,0.1698904,-0.119042926,9.746565,-0.0018325944,0.00076358096,-0.0018325944,-632.1938,-234.20625,-606.91876,watch_2
26135407281497,0.1794617,-0.119042926,9.741779,-0.0018325944,-0.0004581486,-0.0018325944,-633.75,-235.63126,-609.28125,watch_2
26135407666810,0.1794617,-0.119042926,9.741779,-0.0018325944,-0.0004581486,-0.0018325944,-633.75,-235.63126,-609.28125,watch_2
26135402551706,0.1794617,-0.119042926,9.741779,-0.0018325944,-0.0004581486,-0.0018325944,-633.75,-235.63126,-609.28125,watch_2
26135417281445,0.1794617,-0.119042926,9.741779,-0.0018325944,-0.0004581486,-0.0018325944,-633.75,-235.63126,-609.28125,watch_2
26135427288789,0.18424734,-0.123828575,9.741779,-0.0018325944,0.00076358096,-0.0018325944,-628.91254,-236.1,-604.03125,watch_2
26135422173685,0.18424734,-0.123828575,9.741779,-0.0018325944,0.00076358096,-0.0018325944,-628.91254,-236.1,-604.03125,watch_2
26135457281237,0.18424734,-0.123828575,9.741779,-0.0018325944,0.00076358096,-0.0018325944,-633.1313,-236.02501,-606.5625,watch_2
26135437281341,0.18424734,-0.123828575,9.741779,-0.0018325944,0.00076358096,-0.0018325944,-628.91254,-236.1,-604.03125,watch_2
26135441827695,0.1698904,-0.119042926,9.741779,-0.0006108648,0.0044287695,-0.0018325944,-633.1313,-236.02501,-606.5625,watch_2
26135467281185,0.1698904,-0.119042926,9.741779,-0.0006108648,0.0044287695,-0.0018325944,-633.35626,-235.20001,-607.53754,watch_2
26135447281289,0.16510476,-0.119042926,9.746565,-0.0006108648,0.0044287695,-0.0018325944,-633.35626,-235.20001,-607.53754,watch_2
26135461450716,0.16510476,-0.119042926,9.746565,-0.0006108648,0.00320704,-0.0030543238,-633.35626,-235.20001,-607.53754,watch_2
26135466565820,0.16510476,-0.119042926,9.746565,-0.0006108648,0.00320704,-0.0030543238,-633.35626,-235.20001,-607.53754,watch_2
26135446942799,0.1698904,-0.119042926,9.741779,-0.0006108648,0.0044287695,-0.0018325944,-633.35626,-235.20001,-607.53754,watch_2
26135486187799,0.1698904,-0.123828575,9.736994,-0.0006108648,0.00076358096,-0.0018325944,-631.85626,-236.25002,-608.1375,watch_2
26135481072695,0.1698904,-0.123828575,9.736994,-0.0006108648,0.00076358096,-0.0018325944,-629.8875,-238.21877,-603.6375,watch_2
26135477281133,0.1698904,-0.123828575,9.736994,-0.0006108648,0.00076358096,-0.0018325944,-631.85626,-236.25002,-608.1375,watch_2
26135487281081,0.1698904,-0.123828575,9.736994,-0.0006108648,0.00320704,-0.0030543238,-631.85626,-236.25002,-608.1375,watch_2
26135507280976,0.1698904,-0.123828575,9.736994,-0.0006108648,0.00076358096,-0.0018325944,-630.65625,-236.88751,-604.4438,watch_2
26135427281393,0.1698904,-0.123828575,9.736994,-0.0006108648,0.00076358096,-0.0018325944,-631.85626,-236.25002,-608.1375,watch_2
26135497281028,0.1698904,-0.123828575,9.736994,-0.0006108648,0.00076358096,-0.0018325944,-630.65625,-236.88751,-604.4438,watch_2
26135500726706,0.1794617,-0.119042926,9.75135,-0.0006108648,0.00076358096,-0.0030543238,-629.71875,-238.05,-603.78754,watch_2
26135517280924,0.1794617,-0.119042926,9.75135,-0.0006108648,0.00076358096,-0.0030543238,-629.98126,-238.93126,-603.8813,watch_2
26135505841810,0.1794617,-0.119042926,9.75135,-0.0006108648,0.00076358096,-0.0030543238,-629.98126,-238.93126,-603.8813,watch_2
26135527280872,0.1794617,-0.119042926,9.75135,-0.0006108648,0.00076358096,-0.0030543238,-629.98126,-238.93126,-603.8813,watch_2
26135520349726,0.17467605,-0.109471634,9.741779,-0.0006108648,-0.0004581486,-0.0030543238,-630.0563,-239.6625,-603.525,watch_2
26135537280820,0.17467605,-0.109471634,9.741779,-0.0006108648,-0.0004581486,-0.0030543238,-630.0563,-239.6625,-603.525,watch_2
26135525464831,0.17467605,-0.109471634,9.741779,-0.0006108648,-0.0004581486,-0.0030543238,-630.0563,-239.6625,-603.525,watch_2
26135547280768,0.17467605,-0.109471634,9.741779,-0.0006108648,-0.0004581486,-0.0030543238,-630.45,-237.8625,-603.9,watch_2
26135545117799,0.1794617,-0.10468599,9.736994,-0.0006108648,-0.0004581486,-0.0018325944,-630.45,-237.8625,-603.9,watch_2
26135540002695,0.1794617,-0.10468599,9.736994,-0.0006108648,-0.0004581486,-0.0018325944,-630.45,-237.8625,-603.9,watch_2
26135557280716,0.1794617,-0.10468599,9.736994,-0.0006108648,-0.0004581486,-0.0018325944,-630.46875,-238.1625,-603.1313,watch_2
26135567280664,0.1794617,-0.10468599,9.736994,-0.0006108648,-0.0004581486,-0.0018325944,-630.30005,-239.11876,-604.1813,watch_2
26135564740820,0.16510476,-0.109471634,9.741779,-0.0006108648,0.00320704,-0.0018325944,-630.30005,-239.11876,-604.1813,watch_2
26135559625716,0.16510476,-0.109471634,9.741779,-0.0006108648,0.00320704,-0.0018325944,-629.92505,-235.33125,-606.54376,watch_2
26135577280612,0.16510476,-0.109471634,9.741779,-0.0006108648,0.00320704,-0.0018325944,-629.92505,-235.33125,-606.54376,watch_2
26135587280560,0.16510476,-0.109471634,9.741779,-0.0006108648,0.00320704,-0.0018325944,-630.525,-237.00002,-604.85626,watch_2
26135584362799,0.16510476,-0.109471634,9.741779,-0.0018325944,0.00320704,-0.0030543238,-630.525,-237.00002,-604.85626,watch_2
26135579247695,0.16510476,-0.109471634,9.741779,-0.0018325944,0.00320704,-0.0030543238,-631.3875,-236.21251,-607.35004,watch_2
26135597280508,0.16510476,-0.109471634,9.741779,-0.0018325944,0.00320704,-0.0030543238,-631.3875,-236.21251,-607.35004,watch_2
26135607280456,0.16510476,-0.109471634,9.741779,-0.0018325944,0.00320704,-0.0030543238,-631.8188,-236.2875,-606.67505,watch_2
26135598901706,0.16510476,-0.10468599,9.736994,-0.0006108648,0.0019853106,-0.0030543238,-631.0875,-236.475,-606.28125,watch_2
26135617280403,0.16510476,-0.10468599,9.736994,-0.0006108648,0.0019853106,-0.0030543238,-631.0875,-236.475,-606.28125,watch_2
26135604016810,0.16510476,-0.10468599,9.736994,-0.0006108648,0.0019853106,-0.0030543238,-631.0875,-236.475,-606.28125,watch_2
26135627280351,0.16510476,-0.10468599,9.736994,-0.0006108648,0.0019853106,-0.0030543238,-632.10004,-235.87502,-607.4625,watch_2
26135618524726,0.16510476,-0.109471634,9.732208,0.0006108648,-0.0004581486,-0.0030543238,-632.10004,-235.87502,-607.4625,watch_2
26135623639831,0.16510476,-0.109471634,9.732208,0.0006108648,-0.0004581486,-0.0030543238,-632.10004,-235.87502,-607.4625,watch_2
26135637280299,0.16510476,-0.109471634,9.732208,0.0006108648,-0.0004581486,-0.0030543238,-630.5625,-236.96251,-606.60004,watch_2
26135647280247,0.16510476,-0.109471634,9.732208,0.0006108648,-0.0004581486,-0.0030543238,-631.96875,-237.56252,-607.29376,watch_2
26135643292799,0.16510476,-0.109471634,9.746565,0.0006108648,-0.0004581486,-0.0030543238,-631.96875,-237.56252,-607.29376,watch_2
26135638177695,0.16510476,-0.109471634,9.746565,0.0006108648,-0.0004581486,-0.0030543238,-631.96875,-237.56252,-607.29376,watch_2
26135657280195,0.16510476,-0.109471634,9.746565,0.0006108648,-0.0004581486,-0.0030543238,-631.96875,-237.56252,-607.29376,watch_2
26135667280143,0.16510476,-0.109471634,9.746565,0.0006108648,-0.0004581486,-0.0030543238,-631.96875,-237.58125,-606.5625,watch_2
26135657800716,0.1794617,-0.10468599,9.741779,-0.0006108648,0.00076358096,-0.0018325944,-633.41254,-235.63126,-607.5,watch_2
26135677280091,0.1794617,-0.10468599,9.741779,-0.0006108648,0.00076358096,-0.0018325944,-633.41254,-235.63126,-607.5,watch_2
26135662915820,0.1794617,-0.10468599,9.741779,-0.0006108648,0.00076358096,-0.0018325944,-631.96875,-237.58125,-606.5625,watch_2
26135687280039,0.1794617,-0.10468599,9.741779,-0.0006108648,0.00076358096,-0.0018325944,-632.1188,-236.34377,-605.6813,watch_2
26135677422695,0.17467605,-0.09990034,9.741779,-0.0006108648,0.0019853106,-0.0030543238,-632.1188,-236.34377,-605.6813,watch_2
26135682537799,0.17467605,-0.09990034,9.741779,-0.0006108648,0.0019853106,-0.0030543238,-632.1188,-236.34377,-605.6813,watch_2
26135697279987,0.17467605,-0.09990034,9.741779,-0.0006108648,0.0019853106,-0.0030543238,-632.2688,-236.19376,-606.5813,watch_2
26135707279935,0.17467605,-0.09990034,9.741779,-0.0006108648,0.0019853106,-0.0030543238,-631.0875,-234.90001,-607.3125,watch_2
26135702191810,0.1698904,-0.09990034,9.746565,-0.0018325944,0.00320704,-0.0018325944,-631.0875,-234.90001,-607.3125,watch_2
26135697076706,0.1698904,-0.09990034,9.746565,-0.0018325944,0.00320704,-0.0018325944,-631.0875,-234.90001,-607.3125,watch_2
26135717279883,0.1698904,-0.09990034,9.746565,-0.0018325944,0.00320704,-0.0018325944,-632.325,-236.79376,-606.09375,watch_2
26135727279831,0.1698904,-0.09990034,9.746565,-0.0018325944,0.00320704,-0.0018325944,-632.0625,-235.57501,-607.78125,watch_2
26135716699726,0.15074782,-0.109471634,9.741779,-0.0018325944,0.0019853106,-0.0018325944,-633.30005,-237.45001,-607.0125,watch_2
26135721814831,0.15074782,-0.109471634,9.741779,-0.0018325944,0.0019853106,-0.0018325944,-633.30005,-237.45001,-607.0125,watch_2
26135737279778,0.15074782,-0.109471634,9.741779,-0.0018325944,0.0019853106,-0.0018325944,-633.30005,-237.45001,-607.0125,watch_2
26135747279726,0.15074782,-0.109471634,9.741779,-0.0018325944,0.0019853106,-0.0018325944,-632.775,-234.91876,-610.10626,watch_2
26135736352695,0.15074782,-0.109471634,9.741779,-0.0018325944,0.00076358096,-0.0018325944,-632.775,-234.91876,-610.10626,watch_2
26135741467799,0.16510476,-0.123828575,9.736994,-0.0018325944,0.00076358096,-0.0018325944,-632.775,-234.91876,-610.10626,watch_2
26135757279674,0.16510476,-0.123828575,9.736994,-0.0018325944,0.00076358096,-0.0018325944,-632.0813,-235.57501,-608.5125,watch_2
26135767279622,0.16510476,-0.123828575,9.736994,-0.0018325944,0.00076358096,-0.0018325944,-631.65,-237.37502,-607.125,watch_2
26135761090820,0.1794617,-0.109471634,9.746565,-0.0006108648,0.00076358096,-0.0018325944,-631.65,-237.37502,-607.125,watch_2
26135755975716,0.1794617,-0.109471634,9.746565,-0.0006108648,0.00076358096,-0.0018325944,-631.65,-237.37502,-607.125,watch_2
26135777279570,0.1794617,-0.109471634,9.746565,-0.0006108648,0.00076358096,-0.0018325944,-632.325,-236.45625,-608.3063,watch_2
26135787279518,0.1794617,-0.109471634,9.746565,-0.0006108648,0.00076358096,-0.0018325944,-630.9563,-236.2875,-607.7438,watch_2
26135780713789,0.1794617,-0.10468599,9.741779,-0.0006108648,-0.0004581486,-0.0018325944,-630.9563,-236.2875,-607.7438,watch_2
26135775598685,0.1794617,-0.10468599,9.741779,-0.0006108648,-0.0004581486,-0.0018325944,-630.9563,-236.2875,-607.7438,watch_2
26135797279466,0.1794617,-0.10468599,9.741779,-0.0006108648,-0.0004581486,-0.0018325944,-631.6313,-237.4125,-605.9625,watch_2
26135807279414,0.1794617,-0.10468599,9.741779,-0.0006108648,-0.0004581486,-0.0018325944,-630.6188,-237.69376,-605.8125,watch_2
26135795251706,0.1794617,-0.10468599,9.736994,-0.0018325944,0.00076358096,-0.0030543238,-630.6188,-237.69376,-605.8125,watch_2
26135800366810,0.1794617,-0.10468599,9.736994,-0.0018325944,0.00076358096,-0.0030543238,-630.6188,-237.69376,-605.8125,watch_2
26135817279362,0.1794617,-0.10468599,9.736994,-0.0018325944,0.00076358096,-0.0030543238,-632.3063,-234.88126,-608.60626,watch_2
26135827279310,0.1698904,-0.11425728,9.732208,-0.0018325944,0.00320704,-0.0018325944,-632.5688,-234.4875,-608.8313,watch_2
26135814874726,0.1698904,-0.11425728,9.732208,-0.0018325944,0.00320704,-0.0018325944,-632.5688,-234.4875,-608.8313,watch_2
26135819989831,0.1698904,-0.11425728,9.732208,-0.0018325944,0.00320704,-0.0018325944,-632.5688,-234.4875,-608.8313,watch_2
26135837279258,0.1698904,-0.11425728,9.732208,-0.0018325944,0.00320704,-0.0018325944,-630.8813,-235.2375,-610.0125,watch_2
26135839642799,0.16510476,-0.119042926,9.741779,-0.0018325944,0.00320704,-0.0018325944,-633.60004,-235.76251,-609.11255,watch_2
26135847279206,0.16510476,-0.119042926,9.741779,-0.0018325944,0.00320704,-0.0018325944,-633.60004,-235.76251,-609.11255,watch_2
26135834527695,0.16510476,-0.119042926,9.741779,-0.0018325944,0.00320704,-0.0018325944,-633.60004,-235.76251,-609.11255,watch_2
26135857279153,0.16510476,-0.119042926,9.741779,-0.0018325944,0.00320704,-0.0018325944,-634.5563,-236.79376,-606.35626,watch_2
26135867279101,0.17467605,-0.11425728,9.732208,-0.0018325944,0.00320704,-0.0018325944,-630.91876,-235.9875,-608.1938,watch_2
26135859265820,0.17467605,-0.11425728,9.732208,-0.0018325944,0.0019853106,-0.0018325944,-630.91876,-235.9875,-608.1938,watch_2
26135854150716,0.17467605,-0.11425728,9.732208,-0.0018325944,0.0019853106,-0.0018325944,-630.91876,-235.9875,-608.1938,watch_2
26135877279049,0.17467605,-0.11425728,9.732208,-0.0018325944,0.0019853106,-0.0018325944,-633.6188,-236.06252,-607.6313,watch_2
26135873773685,0.1698904,-0.11425728,9.736994,-0.0006108648,0.00076358096,-0.0030543238,-632.4,-235.89375,-608.23126,watch_2
26135878888789,0.1698904,-0.11425728,9.736994,-0.0006108648,0.00076358096,-0.0030543238,-632.4,-235.89375,-608.23126,watch_2
26135887278997,0.1698904,-0.11425728,9.736994,-0.0006108648,0.00076358096,-0.0030543238,-632.4,-235.89375,-608.23126,watch_2
26135897278945,0.1698904,-0.11425728,9.736994,-0.0006108648,0.00076358096,-0.0030543238,-633.60004,-235.76251,-609.11255,watch_2
26135907278893,0.1698904,-0.11425728,9.736994,-0.0006108648,0.00076358096,-0.0030543238,-631.91254,-234.13126,-608.34375,watch_2
26135893426706,0.1698904,-0.08554341,9.756136,-0.0006108648,-0.0004581486,-0.0018325944,-631.91254,-234.13126,-608.34375,watch_2
26135898541810,0.1698904,-0.08554341,9.756136,-0.0006108648,-0.0004581486,-0.0018325944,-631.91254,-234.13126,-608.34375,watch_2
26135917278841,0.1698904,-0.08554341,9.756136,-0.0006108648,-0.0004581486,-0.0018325944,-633.03754,-234.69376,-608.71875,watch_2
26135927278789,0.1698904,-0.08554341,9.756136,-0.0006108648,-0.0004581486,-0.0018325944,-631.61255,-237.1125,-606.7125,watch_2
26135918164831,0.18424734,-0.0951147,9.732208,-0.0006108648,-0.0004581486,-0.0018325944,-631.61255,-237.1125,-606.7125,watch_2
26135913049726,0.18424734,-0.0951147,9.732208,-0.0006108648,-0.0004581486,-0.0018325944,-631.61255,-237.1125,-606.7125,watch_2
26135937278737,0.18424734,-0.0951147,9.732208,-0.0006108648,-0.0004581486,-0.0018325944,-632.66254,-235.50002,-608.4375,watch_2
26135947278685,0.1794617,-0.10468599,9.741779,-0.0006108648,0.00076358096,-0.0018325944,-630.8813,-235.5375,-608.9625,watch_2
26135937817799,0.1794617,-0.10468599,9.741779,-0.0006108648,0.00076358096,-0.0018325944,-630.8813,-235.5375,-608.9625,watch_2
26135932702695,0.1794617,-0.10468599,9.741779,-0.0006108648,0.00076358096,-0.0018325944,-630.8813,-235.5375,-608.9625,watch_2
26135957278633,0.1794617,-0.10468599,9.741779,-0.0006108648,0.00076358096,-0.0018325944,-633.825,-236.34377,-609.5063,watch_2
26135967278581,0.16510476,-0.119042926,9.741779,-0.0006108648,0.00076358096,-0.0018325944,-632.66254,-235.51875,-607.72504,watch_2
26135957440820,0.16510476,-0.119042926,9.741779,-0.0006108648,0.00320704,-0.0018325944,-632.66254,-235.51875,-607.72504,watch_2
26135952325716,0.16510476,-0.119042926,9.741779,-0.0006108648,0.00320704,-0.0018325944,-632.66254,-235.51875,-607.72504,watch_2
26135977278528,0.16510476,-0.119042926,9.741779,-0.0006108648,0.00320704,-0.0018325944,-633.3375,-234.90001,-608.15625,watch_2
26135987278476,0.16031912,-0.109471634,9.732208,-0.0006108648,0.00320704,-0.0018325944,-632.5875,-234.7875,-608.79376,watch_2
26135977063789,0.16031912,-0.109471634,9.732208,-0.0006108648,0.00320704,-0.0018325944,-632.5875,-234.7875,-608.79376,watch_2
26135971948685,0.16031912,-0.109471634,9.732208,-0.0006108648,0.00320704,-0.0018325944,-632.5875,-234.7875,-608.79376,watch_2
26135997278424,0.16031912,-0.109471634,9.732208,-0.0006108648,0.00320704,-0.0018325944,-633.46875,-235.87502,-609.525,watch_2
26135996716810,0.15074782,-0.109471634,9.732208,-0.0006108648,0.00076358096,-0.0018325944,-633.1875,-235.9875,-609.03754,watch_2
26135991601706,0.15074782,-0.109471634,9.732208,-0.0006108648,0.00076358096,-0.0018325944,-633.1875,-235.9875,-609.03754,watch_2
26136007278372,0.15074782,-0.109471634,9.732208,-0.0006108648,0.00076358096,-0.0018325944,-633.1875,-235.9875,-609.03754,watch_2
26136017278320,0.15074782,-0.109471634,9.732208,-0.0006108648,0.00076358096,-0.0018325944,-634.85626,-234.91876,-609.6188,watch_2
26136016339831,0.16031912,-0.109471634,9.732208,-0.0006108648,0.00076358096,-0.0018325944,-634.85626,-234.91876,-609.6188,watch_2
26136037278216,0.16031912,-0.109471634,9.732208,0.0006108648,-0.0016798781,-0.0018325944,-634.575,-235.18126,-608.55005,watch_2
26136027278268,0.16031912,-0.109471634,9.732208,0.0006108648,-0.0016798781,-0.0018325944,-634.575,-235.18126,-608.55005,watch_2
26136011224726,0.16031912,-0.109471634,9.732208,0.0006108648,-0.0016798781,-0.0018325944,-634.575,-235.18126,-608.55005,watch_2
26136035992799,0.17467605,-0.10468599,9.736994,0.0030543238,-0.0004581486,-0.0018325944,-633.97504,-235.25626,-607.8938,watch_2
26136030877695,0.16031912,-0.109471634,9.732208,0.0030543238,-0.0004581486,-0.0018325944,-633.97504,-235.25626,-607.8938,watch_2
26136047278164,0.17467605,-0.10468599,9.736994,0.0030543238,-0.0004581486,-0.0018325944,-633.97504,-235.25626,-607.8938,watch_2
26136057278112,0.17467605,-0.10468599,9.736994,0.0030543238,-0.0004581486,-0.0018325944,-633.09375,-235.44376,-607.6313,watch_2
26136055615820,0.17467605,-0.10468599,9.746565,0.0030543238,-0.0004581486,-0.0018325944,-633.09375,-235.44376,-607.6313,watch_2
26136050500716,0.17467605,-0.10468599,9.746565,0.0018325944,0.00320704,-0.0018325944,-633.09375,-235.44376,-607.6313,watch_2
26136067278060,0.17467605,-0.10468599,9.746565,0.0018325944,0.00320704,-0.0018325944,-633.15,-236.00626,-607.575,watch_2
26136077278008,0.17467605,-0.10468599,9.746565,0.0018325944,0.00320704,-0.0018325944,-632.0625,-235.59377,-607.5,watch_2
26136075238789,0.16510476,-0.09990034,9.746565,0.0018325944,0.0019853106,-0.0018325944,-632.0625,-235.59377,-607.5,watch_2
26136070123685,0.16510476,-0.09990034,9.746565,0.0018325944,0.0019853106,-0.0018325944,-634.0125,-236.81252,-608.625,watch_2
26136087277956,0.16510476,-0.09990034,9.746565,0.0018325944,0.0019853106,-0.0018325944,-634.0125,-236.81252,-608.625,watch_2
26136097277903,0.16510476,-0.09990034,9.746565,0.0018325944,0.0019853106,-0.0018325944,-633.825,-235.06876,-609.2063,watch_2
26136094891810,0.15553348,-0.109471634,9.736994,0.0018325944,0.0019853106,-0.0018325944,-633.825,-235.06876,-609.2063,watch_2
26136089776706,0.15553348,-0.109471634,9.736994,-0.0018325944,0.0019853106,-0.0018325944,-632.1938,-235.46251,-607.66876,watch_2
26136107277851,0.15553348,-0.109471634,9.736994,-0.0018325944,0.0019853106,-0.0018325944,-632.1938,-235.46251,-607.66876,watch_2
26136117277799,0.15553348,-0.109471634,9.736994,-0.0018325944,0.0019853106,-0.0018325944,-628.95,-237.16876,-606.97504,watch_2
26136114514831,0.14596218,-0.10468599,9.741779,-0.0018325944,0.0019853106,-0.0018325944,-628.95,-237.16876,-606.97504,watch_2
26136109399726,0.14596218,-0.10468599,9.741779,-0.0030543238,0.0044287695,-0.0018325944,-632.8125,-237.28127,-605.8125,watch_2
26136127277747,0.14596218,-0.10468599,9.741779,-0.0030543238,0.0044287695,-0.0018325944,-632.8125,-237.28127,-605.8125,watch_2
26136137277695,0.14596218,-0.10468599,9.741779,-0.0030543238,0.0044287695,-0.0018325944,-632.3063,-236.475,-606.86255,watch_2
26136134167799,0.15074782,-0.11425728,9.75135,-0.0030543238,0.00076358096,-0.0018325944,-633.3188,-234.58125,-609.3375,watch_2
26136129052695,0.15074782,-0.11425728,9.75135,-0.0030543238,0.00076358096,-0.0018325944,-633.3188,-234.58125,-609.3375,watch_2
26136147277643,0.15074782,-0.11425728,9.75135,-0.0030543238,0.00076358096,-0.0018325944,-633.3188,-234.58125,-609.3375,watch_2
26136157277591,0.15074782,-0.11425728,9.75135,-0.0030543238,0.00076358096,-0.0018325944,-633.73126,-235.96877,-606.78754,watch_2
26136153790820,0.17467605,-0.10468599,9.741779,-0.0030543238,-0.0004581486,-0.0018325944,-633.73126,-235.96877,-606.78754,watch_2
26136148675716,0.17467605,-0.10468599,9.741779,-0.0030543238,-0.0004581486,-0.0018325944,-633.73126,-235.96877,-606.78754,watch_2
26136167277539,0.17467605,-0.10468599,9.741779,-0.0030543238,-0.0004581486,-0.0018325944,-632.73755,-234.63751,-609.41254,watch_2
26136177277487,0.17467605,-0.10468599,9.741779,-0.0030543238,-0.0004581486,-0.0018325944,-630.2438,-235.68752,-605.10004,watch_2
26136173413789,0.1698904,-0.09990034,9.741779,-0.0030543238,0.0019853106,-0.0018325944,-630.2438,-235.68752,-605.10004,watch_2
26136168298685,0.1698904,-0.09990034,9.741779,-0.0030543238,0.0019853106,-0.0018325944,-630.2438,-236.64375,-607.4438,watch_2
26136187277435,0.1698904,-0.09990034,9.741779,-0.0030543238,0.0019853106,-0.0018325944,-632.47504,-236.64375,-607.4438,watch_2
26136197277383,0.1698904,-0.09990034,9.741779,-0.0030543238,0.0019853106,-0.0018325944,-632.1375,-237.4125,-608.92505,watch_2
26136193066810,0.16510476,-0.10468599,9.746565,-0.0018325944,0.0019853106,-0.0018325944,-632.1375,-237.4125,-608.92505,watch_2
26136187951706,0.16510476,-0.10468599,9.746565,-0.0018325944,0.0019853106,-0.0018325944,-632.0625,-235.59377,-607.05005,watch_2
26136207277331,0.16510476,-0.10468599,9.746565,-0.0018325944,0.0019853106,-0.0018325944,-632.0625,-235.59377,-607.05005,watch_2
26136217277278,0.16510476,-0.10468599,9.746565,-0.0018325944,0.0019853106,-0.0018325944,-633.1313,-235.70625,-608.325,watch_2
26136212689831,0.16510476,-0.109471634,9.741779,-0.0018325944,0.0019853106,-0.0018325944,-633.1313,-235.70625,-608.325,watch_2
26136207574726,0.16510476,-0.109471634,9.741779,-0.0018325944,0.0019853106,-0.0018325944,-633.1313,-235.70625,-608.325,watch_2
26136227277226,0.16510476,-0.109471634,9.741779,-0.0018325944,0.0019853106,-0.0018325944,-633.11255,-236.83125,-608.36255,watch_2
26136237277174,0.16510476,-0.109471634,9.741779,-0.0018325944,0.0019853106,-0.0018325944,-632.4,-237.18752,-607.8188,watch_2
26136227197695,0.16031912,-0.109471634,9.741779,-0.0006108648,0.00076358096,-0.0018325944,-632.4,-237.18752,-607.8188,watch_2
26136232312799,0.16031912,-0.109471634,9.741779,-0.0018325944,0.0019853106,-0.0018325944,-632.4,-237.18752,-607.8188,watch_2
26136247277122,0.16031912,-0.109471634,9.741779,-0.0006108648,0.00076358096,-0.0018325944,-633.0188,-236.30626,-606.65625,watch_2
26136257277070,0.16031912,-0.109471634,9.741779,-0.0006108648,0.00076358096,-0.0018325944,-631.0875,-237.75002,-606.60004,watch_2
26136251965820,0.16510476,-0.109471634,9.736994,-0.0006108648,-0.0004581486,-0.0030543238,-631.0875,-237.75002,-606.60004,watch_2
26136246850716,0.16510476,-0.109471634,9.736994,-0.0006108648,-0.0004581486,-0.0030543238,-631.0875,-237.75002,-606.60004,watch_2
26136267277018,0.16510476,-0.109471634,9.736994,-0.0006108648,-0.0004581486,-0.0030543238,-633.3375,-234.90001,-607.85626,watch_2
26136277276966,0.16510476,-0.109471634,9.736994,-0.0006108648,-0.0004581486,-0.0030543238,-632.04376,-237.18752,-605.4563,watch_2
26136271588789,0.1794617,-0.109471634,9.736994,0.0006108648,-0.0016798781,-0.0018325944,-632.04376,-237.18752,-605.4563,watch_2
26136266473685,0.1794617,-0.109471634,9.736994,0.0006108648,-0.0016798781,-0.0018325944,-632.04376,-237.18752,-605.4563,watch_2
26136287276914,0.1794617,-0.109471634,9.736994,0.0006108648,-0.0016798781,-0.0018325944,-633.15,-236.00626,-607.575,watch_2
26136297276862,0.1794617,-0.109471634,9.736994,0.0006108648,-0.0016798781,-0.0018325944,-632.47504,-236.64375,-607.0125,watch_2
26136286126706,0.16510476,-0.10468599,9.741779,-0.0006108648,0.00076358096,-0.0018325944,-632.47504,-236.64375,-607.0125,watch_2
26136291241810,0.16510476,-0.10468599,9.741779,-0.0006108648,0.00076358096,-0.0018325944,-632.47504,-236.64375,-607.0125,watch_2
26136307276810,0.16510476,-0.10468599,9.741779,-0.0006108648,0.00076358096,-0.0018325944,-633.6375,-236.02501,-609.67505,watch_2
26136317276758,0.16510476,-0.10468599,9.741779,-0.0006108648,0.00076358096,-0.0018325944,-631.91254,-235.725,-606.60004,watch_2
26136310864831,0.16510476,-0.09032906,9.75135,0.0006108648,0.00076358096,-0.0018325944,-631.91254,-235.725,-606.60004,watch_2
26136305749726,0.16510476,-0.09032906,9.75135,0.0006108648,0.00076358096,-0.0018325944,-631.91254,-235.725,-606.60004,watch_2
26136327276706,0.16510476,-0.09032906,9.75135,0.0006108648,0.00076358096,-0.0018325944,-631.96875,-236.15627,-606.84375,watch_2
26136337276653,0.16510476,-0.09032906,9.75135,0.0006108648,0.00076358096,-0.0018325944,-633.03754,-236.2875,-607.3875,watch_2
26136330487799,0.16510476,-0.09032906,9.746565,-0.0018325944,0.00076358096,-0.0018325944,-633.03754,-236.2875,-607.3875,watch_2
26136325372695,0.16510476,-0.09032906,9.746565,-0.0018325944,0.00076358096,-0.0018325944,-633.03754,-236.2875,-607.3875,watch_2
26136347276601,0.16510476,-0.09032906,9.746565,-0.0018325944,0.00076358096,-0.0018325944,-633.03754,-236.2875,-607.3875,watch_2
26136357276549,0.16510476,-0.09032906,9.746565,-0.0018325944,0.00076358096,-0.0018325944,-632.3813,-235.6125,-608.25,watch_2
26136350140820,0.1794617,-0.09990034,9.741779,-0.0018325944,0.00076358096,-0.0018325944,-632.3813,-235.6125,-608.25,watch_2
26136345025716,0.1794617,-0.09990034,9.741779,-0.0030543238,0.0019853106,-0.0018325944,-632.3813,-235.6125,-608.25,watch_2
26136367276497,0.1794617,-0.09990034,9.741779,-0.0030543238,0.0019853106,-0.0018325944,-632.60626,-235.08751,-607.7625,watch_2
26136377276445,0.1794617,-0.09990034,9.741779,-0.0030543238,0.0019853106,-0.0018325944,-634.65,-235.9125,-608.4938,watch_2
26136364648685,0.1698904,-0.11425728,9.746565,-0.0042760535,0.0019853106,-0.0018325944,-634.65,-235.9125,-608.4938,watch_2
26136369763789,0.1698904,-0.11425728,9.746565,-0.0042760535,0.0019853106,-0.0018325944,-634.65,-235.9125,-608.4938,watch_2
26136387276393,0.1698904,-0.11425728,9.746565,-0.0042760535,0.0019853106,-0.0018325944,-632.47504,-236.30626,-609.22504,watch_2
26136397276341,0.1698904,-0.11425728,9.746565,-0.0042760535,0.0019853106,-0.0018325944,-632.28754,-234.90001,-607.875,watch_2
26136389416810,0.16031912,-0.11425728,9.727423,-0.0030543238,0.0019853106,-0.0018325944,-632.28754,-234.90001,-607.875,watch_2
26136384301706,0.16031912,-0.11425728,9.727423,-0.0030543238,0.0019853106,-0.0018325944,-632.28754,-234.90001,-607.875,watch_2
26136407276289,0.16031912,-0.11425728,9.727423,-0.0030543238,0.0019853106,-0.0018325944,-633.6188,-236.06252,-608.36255,watch_2
26136417276237,0.16031912,-0.11425728,9.727423,-0.0030543238,0.0019853106,-0.0018325944,-631.23755,-234.76875,-608.2125,watch_2
26136409039831,0.16031912,-0.10468599,9.736994,-0.0030543238,0.00320704,-0.0018325944,-631.23755,-234.76875,-608.2125,watch_2
26136427276185,0.16031912,-0.10468599,9.736994,-0.0030543238,0.00320704,-0.0018325944,-633.1875,-235.9875,-609.03754,watch_2
26136403924726,0.16031912,-0.10468599,9.736994,-0.0030543238,0.00320704,-0.0018325944,-633.1875,-235.9875,-609.03754,watch_2
26136437276133,0.16031912,-0.10468599,9.736994,-0.0030543238,0.00320704,-0.0018325944,-633.1875,-235.9875,-609.03754,watch_2
26136428662799,0.15553348,-0.09990034,9.741779,-0.0018325944,0.0019853106,-0.0018325944,-633.1875,-235.9875,-609.03754,watch_2
26136423547695,0.15553348,-0.09990034,9.741779,-0.0018325944,0.0019853106,-0.0018325944,-633.1875,-235.9875,-609.03754,watch_2
26136447276081,0.15553348,-0.09990034,9.741779,-0.0018325944,0.0019853106,-0.0018325944,-632.98126,-235.5375,-608.775,watch_2
26136457276028,0.16510476,-0.10468599,9.736994,-0.0006108648,-0.0004581486,-0.0018325944,-632.10004,-235.87502,-607.7625,watch_2
26136448315820,0.16510476,-0.10468599,9.736994,-0.0006108648,-0.0004581486,-0.0018325944,-632.10004,-235.87502,-607.7625,watch_2
26136443200716,0.16510476,-0.10468599,9.736994,-0.0006108648,-0.0004581486,-0.0018325944,-632.10004,-235.87502,-607.7625,watch_2
26136467275976,0.16510476,-0.10468599,9.736994,-0.0006108648,-0.0004581486,-0.0018325944,-633.6188,-236.04376,-608.6438,watch_2
26136477275924,0.17467605,-0.11425728,9.732208,-0.0006108648,-0.0004581486,-0.0018325944,-632.73755,-234.975,-607.6313,watch_2
26136467938789,0.17467605,-0.11425728,9.732208,-0.0018325944,0.00076358096,-0.0018325944,-632.73755,-234.975,-607.6313,watch_2
26136462823685,0.17467605,-0.11425728,9.732208,-0.0018325944,0.00076358096,-0.0018325944,-634.5,-235.725,-608.92505,watch_2
26136487275872,0.17467605,-0.11425728,9.732208,-0.0018325944,0.00076358096,-0.0018325944,-634.5,-235.725,-608.92505,watch_2
26136487591810,0.16510476,-0.10468599,9.732208,-0.0018325944,0.00076358096,-0.0018325944,-635.15625,-234.80626,-610.2563,watch_2
26136497275820,0.16510476,-0.10468599,9.732208,-0.0018325944,0.00076358096,-0.0018325944,-635.15625,-234.80626,-610.2563,watch_2
26136482476706,0.16510476,-0.10468599,9.732208,-0.0006108648,0.0019853106,-0.0018325944,-635.15625,-234.80626,-610.2563,watch_2
26136507275768,0.16510476,-0.10468599,9.732208,-0.0006108648,0.0019853106,-0.0018325944,-632.8875,-234.84377,-608.10004,watch_2
26136517275716,0.17467605,-0.11425728,9.741779,-0.0006108648,0.0019853106,-0.0018325944,-632.04376,-235.27501,-608.55005,watch_2
26136507214831,0.17467605,-0.11425728,9.741779,-0.0006108648,0.00076358096,-0.0018325944,-632.04376,-235.27501,-608.55005,watch_2
26136502099726,0.17467605,-0.11425728,9.741779,-0.0006108648,0.00076358096,-0.0018325944,-632.04376,-235.27501,-608.55005,watch_2
26136527275664,0.17467605,-0.11425728,9.741779,-0.0006108648,0.00076358096,-0.0018325944,-634.03125,-235.68752,-608.5875,watch_2
26136526837799,0.16510476,-0.09990034,9.741779,-0.0006108648,0.0019853106,-0.0018325944,-634.03125,-235.68752,-608.5875,watch_2
26136521722695,0.16510476,-0.09990034,9.741779,-0.0006108648,0.0019853106,-0.0018325944,-633.65625,-234.91876,-608.90625,watch_2
26136537275612,0.16510476,-0.09990034,9.741779,-0.0006108648,0.0019853106,-0.0018325944,-633.65625,-234.91876,-608.90625,watch_2
26136547275560,0.16510476,-0.09990034,9.741779,-0.0006108648,0.0019853106,-0.0018325944,-633.7125,-235.18126,-610.05005,watch_2
26136546490820,0.15553348,-0.10468599,9.736994,-0.0006108648,0.0019853106,-0.0018325944,-633.7125,-235.18126,-610.05005,watch_2
26136541375716,0.15553348,-0.10468599,9.736994,-0.0006108648,0.00076358096,-0.0018325944,-633.7125,-235.18126,-610.05005,watch_2
26136557275508,0.15553348,-0.10468599,9.736994,-0.0006108648,0.00076358096,-0.0018325944,-633.9938,-236.51251,-609.375,watch_2
26136567275456,0.15553348,-0.10468599,9.736994,-0.0006108648,0.00076358096,-0.0018325944,-633.67505,-234.90001,-609.6375,watch_2
26136566113789,0.16031912,-0.11425728,9.741779,-0.0006108648,0.00076358096,-0.0018325944,-633.67505,-234.90001,-609.6375,watch_2
26136560998685,0.16031912,-0.11425728,9.741779,-0.0018325944,-0.0004581486,-0.0018325944,-633.67505,-234.90001,-609.6375,watch_2
26136577275403,0.16031912,-0.11425728,9.741779,-0.0018325944,-0.0004581486,-0.0018325944,-634.5563,-234.90001,-608.8688,watch_2
26136587275351,0.16031912,-0.11425728,9.741779,-0.0018325944,-0.0004581486,-0.0018325944,-634.5563,-234.90001,-608.8688,watch_2
26136580651706,0.16510476,-0.10468599,9.741779,-0.0018325944,0.00076358096,-0.0018325944,-633.30005,-237.46877,-606.73126,watch_2
26136597275299,0.16510476,-0.10468599,9.741779,-0.0018325944,0.00076358096,-0.0018325944,-633.30005,-237.46877,-606.73126,watch_2
26136585766810,0.16510476,-0.10468599,9.741779,-0.0018325944,0.00076358096,-0.0018325944,-633.30005,-237.46877,-606.73126,watch_2
26136607275247,0.16510476,-0.10468599,9.741779,-0.0018325944,0.00076358096,-0.0018325944,-632.60626,-235.08751,-607.4625,watch_2
26136600274726,0.16510476,-0.11425728,9.75135,-0.0006108648,0.0019853106,-0.0018325944,-632.60626,-235.08751,-607.4625,watch_2
26136605389831,0.16510476,-0.11425728,9.75135,-0.0006108648,0.0019853106,-0.0018325944,-632.60626,-235.08751,-607.4625,watch_2
26136617275195,0.16510476,-0.11425728,9.75135,-0.0006108648,0.0019853106,-0.0018325944,-631.42505,-236.49376,-607.6313,watch_2
26136627275143,0.16510476,-0.11425728,9.75135,-0.0006108648,0.0019853106,-0.0018325944,-633.9,-234.71251,-606.91876,watch_2
26136625012799,0.16510476,-0.109471634,9.732208,-0.0006108648,0.0019853106,-0.0018325944,-633.9,-234.71251,-606.91876,watch_2
26136619897695,0.16510476,-0.109471634,9.732208,-0.0006108648,0.00076358096,-0.0018325944,-633.86255,-235.51875,-608.4375,watch_2
26136637275091,0.16510476,-0.109471634,9.732208,-0.0006108648,0.00076358096,-0.0018325944,-633.86255,-235.51875,-608.4375,watch_2
26136647275039,0.16510476,-0.109471634,9.732208,-0.0006108648,0.00076358096,-0.0018325944,-633.73126,-236.75626,-609.60004,watch_2
26136644665820,0.15074782,-0.10468599,9.736994,-0.0006108648,0.0019853106,-0.0018325944,-633.73126,-236.75626,-609.60004,watch_2
26136639550716,0.15074782,-0.10468599,9.736994,-0.0006108648,0.0019853106,-0.0018325944,-633.9,-235.8,-608.41876,watch_2
26136657274987,0.15074782,-0.10468599,9.736994,-0.0006108648,0.0019853106,-0.0018325944,-633.9,-235.8,-608.41876,watch_2
26136667274935,0.15074782,-0.10468599,9.736994,-0.0006108648,0.0019853106,-0.0018325944,-634.0125,-235.21877,-610.3688,watch_2
26136659173685,0.16031912,-0.10468599,9.732208,-0.0006108648,0.00076358096,-0.0018325944,-634.0125,-235.21877,-610.3688,watch_2
26136664288789,0.16031912,-0.10468599,9.732208,-0.0006108648,0.00076358096,-0.0018325944,-634.0125,-235.21877,-610.3688,watch_2
26136677274883,0.16031912,-0.10468599,9.732208,-0.0006108648,0.00076358096,-0.0018325944,-633.60004,-235.76251,-609.11255,watch_2
26136687274831,0.16510476,-0.11425728,9.732208,-0.0006108648,0.00076358096,-0.0018325944,-634.7063,-236.175,-609.1875,watch_2
26136683941810,0.16510476,-0.11425728,9.732208,-0.0006108648,0.00076358096,-0.0018325944,-634.7063,-236.175,-609.1875,watch_2
26136678826706,0.16510476,-0.11425728,9.732208,-0.0006108648,0.00076358096,-0.0030543238,-634.95,-235.95001,-608.5125,watch_2
26136697274778,0.16510476,-0.11425728,9.732208,-0.0006108648,0.00076358096,-0.0030543238,-634.95,-235.95001,-608.5125,watch_2
26136707274726,0.16510476,-0.11425728,9.732208,-0.0006108648,0.00076358096,-0.0030543238,-632.3813,-235.59377,-608.98126,watch_2
26136703564831,0.1698904,-0.109471634,9.736994,-0.0006108648,0.0019853106,-0.0018325944,-632.3813,-235.59377,-608.98126,watch_2
26136698449726,0.1698904,-0.109471634,9.736994,-0.0006108648,0.0019853106,-0.0018325944,-632.3813,-235.59377,-608.98126,watch_2
26136717274674,0.1698904,-0.109471634,9.736994,-0.0006108648,0.0019853106,-0.0018325944,-634.125,-237.80626,-608.53125,watch_2
26136727274622,0.1698904,-0.109471634,9.736994,-0.0006108648,0.0019853106,-0.0018325944,-633.4313,-235.59377,-608.8125,watch_2
26136718072695,0.1794617,-0.10468599,9.736994,-0.0006108648,0.0019853106,-0.0018325944,-633.8063,-236.3625,-608.4938,watch_2
26136737274570,0.1794617,-0.10468599,9.736994,-0.0006108648,0.0019853106,-0.0018325944,-633.8063,-236.3625,-608.4938,watch_2
26136723187799,0.1794617,-0.10468599,9.736994,-0.0006108648,0.0019853106,-0.0018325944,-633.4313,-235.59377,-608.4938,watch_2
26136747274518,0.1794617,-0.10468599,9.736994,-0.0006108648,0.0019853106,-0.0018325944,-634.0125,-235.21877,-610.3688,watch_2
26136742840820,0.16031912,-0.109471634,9.741779,-0.0006108648,0.00076358096,-0.0018325944,-634.0125,-235.21877,-610.3688,watch_2
26136737725716,0.16031912,-0.109471634,9.741779,-0.0006108648,0.00076358096,-0.0018325944,-634.0125,-235.21877,-610.3688,watch_2
26136757274466,0.16031912,-0.109471634,9.741779,-0.0006108648,0.00076358096,-0.0018325944,-633.4313,-234.31876,-608.79376,watch_2
26136767274414,0.16031912,-0.109471634,9.741779,-0.0006108648,0.00076358096,-0.0018325944,-633.0563,-234.99376,-608.4,watch_2
26136762463789,0.17467605,-0.109471634,9.746565,-0.0006108648,0.00076358096,-0.0018325944,-633.0563,-234.99376,-608.4,watch_2
26136757348685,0.17467605,-0.109471634,9.746565,-0.0006108648,0.00076358096,-0.0030543238,-633.9563,-234.95625,-608.9438,watch_2
26136777274362,0.17467605,-0.109471634,9.746565,-0.0006108648,0.00076358096,-0.0030543238,-633.9563,-234.95625,-608.9438,watch_2
26136787274310,0.17467605,-0.109471634,9.746565,-0.0006108648,0.00076358096,-0.0030543238,-633.86255,-235.51875,-608.73755,watch_2
26136777001706,0.16031912,-0.11425728,9.75135,-0.0006108648,0.00076358096,-0.0030543238,-632.8313,-235.66876,-608.5875,watch_2
26136797274258,0.16031912,-0.11425728,9.75135,-0.0006108648,0.00076358096,-0.0030543238,-632.8313,-235.66876,-608.5875,watch_2
26136782116810,0.16031912,-0.11425728,9.75135,-0.0006108648,0.00076358096,-0.0030543238,-632.8313,-235.66876,-608.5875,watch_2
26136807274206,0.16031912,-0.11425728,9.75135,-0.0006108648,0.00076358096,-0.0030543238,-633.075,-234.975,-609.1313,watch_2
26136801739831,0.1794617,-0.119042926,9.736994,-0.0006108648,0.00076358096,-0.0030543238,-633.075,-234.975,-609.1313,watch_2
26136796624726,0.1794617,-0.119042926,9.736994,-0.0018325944,0.00076358096,-0.0030543238,-633.075,-234.975,-609.1313,watch_2
26136817274153,0.1794617,-0.119042926,9.736994,-0.0018325944,0.00076358096,-0.0030543238,-632.6813,-235.81876,-607.40625,watch_2
26136827274101,0.1794617,-0.119042926,9.736994,-0.0018325944,0.00076358096,-0.0030543238,-633.6375,-236.04376,-609.375,watch_2
26136821362799,0.16031912,-0.109471634,9.741779,-0.0018325944,0.00076358096,-0.0030543238,-633.6375,-236.04376,-609.375,watch_2
26136816247695,0.16031912,-0.109471634,9.741779,-0.0006108648,0.0019853106,-0.0018325944,-633.6375,-236.04376,-608.0625,watch_2
26136837274049,0.16031912,-0.109471634,9.741779,-0.0006108648,0.0019853106,-0.0018325944,-633.8063,-236.3625,-608.0625,watch_2
26136847273997,0.16031912,-0.109471634,9.741779,-0.0006108648,0.0019853106,-0.0018325944,-632.15625,-235.03127,-608.0063,watch_2
26136841015820,0.16031912,-0.119042926,9.741779,-0.0006108648,0.0019853106,-0.0018325944,-632.15625,-235.03127,-608.0063,watch_2
26136835900716,0.16031912,-0.119042926,9.741779,-0.0006108648,0.0019853106,-0.0018325944,-634.65,-235.59377,-609.825,watch_2
26136857273945,0.16031912,-0.119042926,9.741779,-0.0006108648,0.0019853106,-0.0018325944,-634.65,-235.59377,-609.825,watch_2
26136867273893,0.16031912,-0.119042926,9.741779,-0.0006108648,0.0019853106,-0.0018325944,-632.8688,-235.95001,-609.0,watch_2
26136855523685,0.16031912,-0.11425728,9.746565,-0.0006108648,0.00076358096,-0.0018325944,-632.8688,-235.95001,-609.0,watch_2
26136860638789,0.16031912,-0.11425728,9.746565,-0.0006108648,0.00076358096,-0.0018325944,-632.8688,-235.95001,-609.0,watch_2
26136877273841,0.16031912,-0.11425728,9.746565,-0.0006108648,0.00076358096,-0.0018325944,-632.73755,-234.95625,-607.9313,watch_2
26136887273789,0.16031912,-0.11425728,9.746565,-0.0006108648,0.00076358096,-0.0018325944,-632.23126,-237.01875,-607.66876,watch_2
26136880291810,0.1698904,-0.11425728,9.741779,-0.0006108648,0.00076358096,-0.0018325944,-632.23126,-237.01875,-607.66876,watch_2
26136875176706,0.1698904,-0.11425728,9.741779,-0.0006108648,0.00076358096,-0.0018325944,-632.23126,-237.01875,-607.66876,watch_2
26136897273737,0.1698904,-0.11425728,9.741779,-0.0006108648,0.00076358096,-0.0018325944,-632.85004,-235.65001,-609.03754,watch_2
26136907273685,0.1698904,-0.11425728,9.741779,-0.0006108648,0.00076358096,-0.0018325944,-632.8313,-235.68752,-607.85626,watch_2
26136899914831,0.17467605,-0.11425728,9.736994,-0.0006108648,0.00076358096,-0.0018325944,-632.8313,-235.68752,-607.85626,watch_2
26136917273633,0.17467605,-0.11425728,9.736994,-0.0006108648,0.00076358096,-0.0018325944,-634.875,-235.2375,-607.85626,watch_2
26136894799726,0.17467605,-0.11425728,9.736994,-0.0006108648,0.00076358096,-0.0018325944,-634.875,-235.2375,-607.85626,watch_2
26136927273581,0.17467605,-0.11425728,9.736994,-0.0006108648,0.00076358096,-0.0018325944,-633.6375,-236.04376,-609.09375,watch_2
26136919537799,0.1698904,-0.119042926,9.741779,-0.0006108648,0.00076358096,-0.0018325944,-633.6375,-236.04376,-609.09375,watch_2
26136914422695,0.1698904,-0.119042926,9.741779,-0.0006108648,0.00076358096,-0.0018325944,-633.6375,-236.04376,-609.09375,watch_2
26136937273528,0.1698904,-0.119042926,9.741779,-0.0006108648,0.00076358096,-0.0018325944,-632.15625,-233.60626,-607.98755,watch_2
26136947273476,0.1698904,-0.119042926,9.741779,-0.0006108648,0.00076358096,-0.0018325944,-633.09375,-235.44376,-607.2,watch_2
26136939190820,0.1698904,-0.10468599,9.746565,-0.0006108648,0.00076358096,-0.0018325944,-633.09375,-235.44376,-607.2,watch_2
26136934075716,0.1698904,-0.10468599,9.746565,-0.0006108648,0.0019853106,-0.0018325944,-633.09375,-235.44376,-607.2,watch_2
26136957273424,0.1698904,-0.10468599,9.746565,-0.0006108648,0.0019853106,-0.0018325944,-633.5625,-235.48126,-608.4,watch_2
26136967273372,0.1698904,-0.10468599,9.746565,-0.0006108648,0.0019853106,-0.0018325944,-632.85004,-234.54376,-608.1188,watch_2
26136953698685,0.16510476,-0.10468599,9.746565,-0.0006108648,0.0019853106,-0.0018325944,-632.85004,-234.54376,-608.1188,watch_2
26136958813789,0.16510476,-0.10468599,9.746565,-0.0006108648,0.0019853106,-0.0018325944,-632.85004,-234.54376,-608.1188,watch_2
26136977273320,0.16510476,-0.10468599,9.746565,-0.0006108648,0.0019853106,-0.0018325944,-633.825,-235.08751,-608.47504,watch_2
26136978466810,0.16510476,-0.10468599,9.75135,-0.0006108648,0.00076358096,-0.0018325944,-632.7563,-234.95625,-608.36255,watch_2
26136973351706,0.16510476,-0.10468599,9.75135,-0.0006108648,0.00076358096,-0.0018325944,-632.7563,-234.95625,-608.36255,watch_2
26136987273268,0.16510476,-0.10468599,9.75135,-0.0006108648,0.00076358096,-0.0018325944,-632.7563,-234.95625,-608.36255,watch_2
26136997273216,0.16510476,-0.10468599,9.75135,-0.0006108648,0.00076358096,-0.0018325944,-633.78754,-234.7875,-609.22504,watch_2
26137007273164,0.1698904,-0.109471634,9.75135,-0.0006108648,0.00076358096,-0.0018325944,-632.53125,-234.05626,-609.30005,watch_2
26136998089831,0.1698904,-0.109471634,9.75135,-0.0006108648,0.00076358096,-0.0018325944,-632.53125,-234.05626,-609.30005,watch_2
26136992974726,0.1698904,-0.109471634,9.75135,-0.0018325944,0.00076358096,-0.0018325944,-632.53125,-234.05626,-609.30005,watch_2
26137017273112,0.1698904,-0.109471634,9.75135,-0.0018325944,0.00076358096,-0.0018325944,-635.4375,-235.96877,-609.8813,watch_2
26137027273060,0.1698904,-0.109471634,9.75135,-0.0018325944,0.00076358096,-0.0018325944,-635.4375,-235.96877,-609.8813,watch_2
26137017712799,0.17467605,-0.109471634,9.741779,-0.0018325944,0.00076358096,-0.0018325944,-635.4375,-235.96877,-609.8813,watch_2
26137012597695,0.17467605,-0.109471634,9.741779,-0.0018325944,0.0019853106,-0.0018325944,-635.4375,-235.96877,-609.8813,watch_2
26137037273008,0.17467605,-0.109471634,9.741779,-0.0018325944,0.0019853106,-0.0018325944,-632.47504,-236.30626,-609.22504,watch_2
26137037365820,0.18424734,-0.109471634,9.741779,-0.0018325944,0.0019853106,-0.0018325944,-633.45,-234.3,-609.825,watch_2
26137047272956,0.18424734,-0.109471634,9.741779,-0.0018325944,0.0019853106,-0.0018325944,-633.45,-234.3,-609.825,watch_2
26137032250716,0.18424734,-0.109471634,9.741779,-0.0006108648,0.0019853106,-0.0018325944,-633.45,-234.3,-609.825,watch_2
26137057272903,0.18424734,-0.109471634,9.741779,-0.0006108648,0.0019853106,-0.0018325944,-632.8125,-235.68752,-607.1438,watch_2
26137067272851,0.1698904,-0.109471634,9.746565,-0.0006108648,0.0019853106,-0.0018325944,-632.5875,-234.7875,-608.5125,watch_2
26137056988789,0.1698904,-0.109471634,9.746565,-0.0006108648,0.0019853106,-0.0018325944,-632.5875,-234.7875,-608.5125,watch_2
26137051873685,0.1698904,-0.109471634,9.746565,-0.0006108648,0.0019853106,-0.0018325944,-632.5875,-234.7875,-608.5125,watch_2
26137077272799,0.1698904,-0.109471634,9.746565,-0.0006108648,0.0019853106,-0.0018325944,-633.3938,-235.14375,-609.5813,watch_2
26137076641810,0.16510476,-0.09990034,9.746565,-0.0006108648,0.0019853106,-0.0018325944,-633.3938,-235.14375,-609.5813,watch_2
26137071526706,0.16510476,-0.09990034,9.746565,-0.0006108648,0.00076358096,-0.0018325944,-633.3938,-235.14375,-609.5813,watch_2
26137087272747,0.16510476,-0.09990034,9.746565,-0.0006108648,0.00076358096,-0.0018325944,-633.16876,-236.00626,-608.3063,watch_2
26137097272695,0.16510476,-0.09990034,9.746565,-0.0006108648,0.00076358096,-0.0018325944,-633.16876,-236.00626,-608.3063,watch_2
26137096264831,0.1794617,-0.109471634,9.75135,-0.0018325944,0.00076358096,-0.0018325944,-632.1188,-237.43126,-607.7625,watch_2
26137107272643,0.1794617,-0.109471634,9.75135,-0.0018325944,0.00076358096,-0.0018325944,-632.1188,-237.43126,-607.7625,watch_2
26137091149726,0.1794617,-0.109471634,9.75135,-0.0018325944,0.00076358096,-0.0018325944,-632.1188,-237.43126,-607.7625,watch_2
26137117272591,0.1794617,-0.109471634,9.75135,-0.0018325944,0.00076358096,-0.0018325944,-630.5625,-235.70625,-606.30005,watch_2
26137115887799,0.17467605,-0.10468599,9.741779,-0.0018325944,0.00076358096,-0.0018325944,-630.5625,-235.70625,-606.30005,watch_2
26137110772695,0.17467605,-0.10468599,9.741779,-0.0006108648,0.00076358096,-0.0018325944,-632.90625,-236.40001,-607.5188,watch_2
26137127272539,0.17467605,-0.10468599,9.741779,-0.0006108648,0.00076358096,-0.0018325944,-632.90625,-236.40001,-607.5188,watch_2
26137137272487,0.17467605,-0.10468599,9.741779,-0.0006108648,0.00076358096,-0.0018325944,-632.5125,-237.07501,-606.67505,watch_2
26137130425716,0.17467605,-0.10468599,9.741779,-0.0018325944,0.00076358096,-0.0030543238,-633.16876,-236.00626,-608.3063,watch_2
26137147272435,0.1794617,-0.109471634,9.741779,-0.0018325944,0.00076358096,-0.0030543238,-633.16876,-236.00626,-608.3063,watch_2
26137135540820,0.1794617,-0.109471634,9.741779,-0.0018325944,0.00076358096,-0.0030543238,-633.16876,-236.00626,-608.3063,watch_2
26137157272383,0.1794617,-0.109471634,9.741779,-0.0018325944,0.00076358096,-0.0030543238,-632.55005,-234.50626,-608.10004,watch_2
26137155163789,0.17467605,-0.109471634,9.736994,-0.0018325944,0.00076358096,-0.0030543238,-632.55005,-234.50626,-608.10004,watch_2
26137150048685,0.17467605,-0.109471634,9.736994,-0.0006108648,0.00076358096,-0.0018325944,-633.11255,-235.425,-608.6438,watch_2
26137167272331,0.17467605,-0.109471634,9.736994,-0.0006108648,0.00076358096,-0.0018325944,-633.11255,-235.425,-608.6438,watch_2
26137177272278,0.17467605,-0.109471634,9.736994,-0.0006108648,0.00076358096,-0.0018325944,-631.9313,-235.38751,-609.825,watch_2
26137174817799,0.16510476,-0.11425728,9.736994,-0.0006108648,0.0019853106,-0.0018325944,-632.8688,-235.95001,-609.0,watch_2
26137187272226,0.16510476,-0.11425728,9.736994,-0.0006108648,0.0019853106,-0.0018325944,-632.8688,-235.95001,-609.0,watch_2
26137169702695,0.16510476,-0.11425728,9.736994,-0.0006108648,0.0019853106,-0.0018325944,-632.8688,-235.95001,-609.0,watch_2
26137197272174,0.16510476,-0.11425728,9.736994,-0.0006108648,0.0019853106,-0.0018325944,-633.4313,-235.6125,-608.53125,watch_2
26137194439831,0.16031912,-0.11425728,9.741779,-0.0006108648,0.0019853106,-0.0018325944,-633.9375,-236.08125,-608.6813,watch_2
26137207272122,0.16031912,-0.11425728,9.741779,-0.0006108648,0.0019853106,-0.0018325944,-633.9375,-236.08125,-608.6813,watch_2
26137189324726,0.16031912,-0.11425728,9.741779,-0.0006108648,0.0019853106,-0.0018325944,-633.9375,-236.08125,-608.6813,watch_2
26137217272070,0.16031912,-0.11425728,9.741779,-0.0006108648,0.0019853106,-0.0018325944,-632.0063,-234.84377,-609.0188,watch_2
26137208947695,0.16031912,-0.11425728,9.741779,-0.0006108648,0.00076358096,-0.0030543238,-632.0063,-234.84377,-609.0188,watch_2
26137227272018,0.16031912,-0.11425728,9.741779,-0.0006108648,0.00076358096,-0.0030543238,-633.91876,-234.675,-608.66254,watch_2
26137214062799,0.16031912,-0.11425728,9.741779,-0.0006108648,0.00076358096,-0.0030543238,-632.0063,-234.84377,-609.0188,watch_2
26137237271966,0.16031912,-0.11425728,9.741779,-0.0006108648,0.00076358096,-0.0030543238,-631.5563,-236.3625,-608.23126,watch_2
26137228600716,0.1794617,-0.119042926,9.741779,-0.0006108648,0.00076358096,-0.0018325944,-631.5563,-236.3625,-608.23126,watch_2
26137233715820,0.1794617,-0.119042926,9.741779,-0.0006108648,0.00076358096,-0.0018325944,-631.5563,-236.3625,-608.23126,watch_2
26137247271914,0.1794617,-0.119042926,9.741779,-0.0006108648,0.00076358096,-0.0018325944,-631.3125,-235.8,-606.65625,watch_2
26137257271862,0.1794617,-0.119042926,9.741779,-0.0006108648,0.00076358096,-0.0018325944,-632.7563,-236.55,-606.60004,watch_2
26137248223685,0.1698904,-0.109471634,9.741779,-0.0006108648,0.0019853106,-0.0018325944,-631.0125,-237.35626,-604.875,watch_2
26137267271810,0.1698904,-0.109471634,9.741779,-0.0006108648,0.0019853106,-0.0018325944,-631.0125,-237.35626,-604.875,watch_2
26137253338789,0.1698904,-0.109471634,9.741779,-0.0006108648,0.0019853106,-0.0018325944,-631.0125,-237.35626,-604.875,watch_2
26137277271758,0.1698904,-0.109471634,9.741779,-0.0006108648,0.0019853106,-0.0018325944,-632.66254,-235.51875,-608.0063,watch_2
26137267877695,0.1794617,-0.109471634,9.736994,-0.0006108648,0.0019853106,-0.0018325944,-631.85626,-236.23126,-608.8688,watch_2
26137287271706,0.1794617,-0.109471634,9.736994,-0.0006108648,0.0019853106,-0.0018325944,-631.85626,-236.23126,-608.8688,watch_2
26137272992799,0.1794617,-0.109471634,9.736994,-0.0006108648,0.0019853106,-0.0018325944,-631.85626,-236.23126,-608.8688,watch_2
26137297271653,0.1794617,-0.109471634,9.736994,-0.0006108648,0.0019853106,-0.0018325944,-631.7438,-235.55626,-607.03125,watch_2
26137292614831,0.1794617,-0.109471634,9.746565,-0.0006108648,0.0019853106,-0.0018325944,-631.7438,-235.55626,-607.03125,watch_2
26137287499726,0.1794617,-0.109471634,9.746565,-0.0006108648,0.0019853106,-0.0018325944,-631.7438,-235.55626,-607.03125,watch_2
26137307271601,0.1794617,-0.109471634,9.746565,-0.0006108648,0.0019853106,-0.0018325944,-632.4938,-236.62502,-608.17505,watch_2
26137317271549,0.1794617,-0.109471634,9.746565,-0.0006108648,0.0019853106,-0.0018325944,-632.7,-235.8,-607.98755,watch_2
26137312237799,0.1698904,-0.09990034,9.736994,-0.0006108648,0.0019853106,-0.0018325944,-632.7,-235.8,-607.98755,watch_2
26137307122695,0.1698904,-0.09990034,9.736994,-0.0018325944,0.0019853106,-0.0018325944,-632.7,-235.8,-607.98755,watch_2
26137327271497,0.1698904,-0.09990034,9.736994,-0.0018325944,0.0019853106,-0.0018325944,-630.2438,-235.35,-607.59375,watch_2
26137337271445,0.1698904,-0.09990034,9.736994,-0.0018325944,0.0019853106,-0.0018325944,-631.4625,-237.26251,-605.0813,watch_2
26137331891810,0.1698904,-0.11425728,9.741779,-0.0018325944,0.00076358096,-0.0018325944,-631.4625,-237.26251,-605.0813,watch_2
26137326776706,0.1698904,-0.11425728,9.741779,-0.0018325944,0.00076358096,-0.0018325944,-631.4625,-237.26251,-605.0813,watch_2
26137347271393,0.1698904,-0.11425728,9.741779,-0.0018325944,0.00076358096,-0.0018325944,-630.30005,-237.675,-605.1938,watch_2
26137357271341,0.1698904,-0.11425728,9.741779,-0.0018325944,0.00076358096,-0.0018325944,-632.1188,-234.75002,-607.72504,watch_2
26137351513789,0.1698904,-0.109471634,9.736994,-0.0018325944,0.00076358096,-0.0018325944,-632.1188,-234.75002,-607.72504,watch_2
26137346398685,0.1698904,-0.109471634,9.736994,-0.0018325944,0.00076358096,-0.0018325944,-632.1188,-234.75002,-607.72504,watch_2
26137367271289,0.1698904,-0.109471634,9.736994,-0.0018325944,0.00076358096,-0.0018325944,-634.2,-234.43126,-608.5875,watch_2
26137377271237,0.1698904,-0.109471634,9.736994,-0.0018325944,0.00076358096,-0.0018325944,-633.0,-237.1125,-608.47504,watch_2
26137371167799,0.16510476,-0.11425728,9.741779,-0.0006108648,0.0019853106,-0.0030543238,-633.0,-237.1125,-608.47504,watch_2
26137366052695,0.16510476,-0.11425728,9.741779,-0.0006108648,0.0019853106,-0.0030543238,-632.8313,-234.09377,-609.6188,watch_2
26137387271185,0.16510476,-0.11425728,9.741779,-0.0006108648,0.0019853106,-0.0030543238,-632.8313,-234.09377,-609.6188,watch_2
26137397271133,0.16510476,-0.11425728,9.741779,-0.0006108648,0.0019853106,-0.0030543238,-632.92505,-233.68126,-609.2438,watch_2
26137385674726,0.1698904,-0.109471634,9.741779,-0.0006108648,0.00076358096,-0.0018325944,-632.92505,-233.68126,-609.2438,watch_2
26137390789831,0.1698904,-0.109471634,9.741779,-0.0006108648,0.00076358096,-0.0018325944,-632.92505,-233.68126,-609.2438,watch_2
26137407271081,0.1698904,-0.109471634,9.741779,-0.0006108648,0.00076358096,-0.0018325944,-633.9563,-234.95625,-608.6438,watch_2
26137417271028,0.1698904,-0.109471634,9.741779,-0.0006108648,0.00076358096,-0.0018325944,-633.30005,-233.04376,-608.60626,watch_2
26137410412799,1.6151553,0.5509474,1.3334004,-0.92057323,-0.105526894,-0.053145237,-633.30005,-233.04376,-608.60626,watch_2
26137405297695,1.6151553,0.5509474,1.3334004,-0.92057323,-0.105526894,-0.053145237,-633.30005,-233.04376,-608.60626,watch_2
26137437270924,1.6151553,0.5509474,1.3334004,-0.92057323,-0.105526894,-0.053145237,-628.78125,-240.18752,-604.35004,watch_2
26137427270976,1.6151553,0.5509474,1.3334004,-0.92057323,-0.105526894,-0.053145237,-628.78125,-240.18752,-604.35004,watch_2
26137424951706,-2.1702902,2.1828525,20.586052,3.6169302,1.950644,-0.12278382,-628.78125,-240.18752,-604.35004,watch_2
26137430066810,-2.1702902,2.1828525,20.586052,3.6169302,1.950644,-0.12278382,-628.78125,-240.18752,-604.35004,watch_2
26137447270872,-2.1702902,2.1828525,20.586052,3.6169302,1.950644,-0.12278382,-628.21875,-237.84377,-604.3688,watch_2
26137467270768,0.7585248,-1.1240284,5.152345,-1.7489059,-2.7505715,0.32559094,-630.65625,-237.99376,-605.79376,watch_2
26137449688789,0.7585248,-1.1240284,5.152345,-1.7489059,-2.7505715,0.32559094,-626.5125,-239.43752,-599.0625,watch_2
26137477270716,-0.51445687,0.2973082,10.363914,-1.7489059,-2.7505715,0.32559094,-630.65625,-237.99376,-605.79376,watch_2
26137444573685,0.7585248,-1.1240284,5.152345,-1.7489059,-2.7505715,0.32559094,-631.03125,-237.99376,-605.79376,watch_2
26137457270820,0.7585248,-1.1240284,5.152345,3.6169302,1.950644,-0.12278382,-626.5125,-239.43752,-599.0625,watch_2
26137464227695,-0.51445687,0.2973082,10.363914,-0.16676609,0.41370818,0.1802051,-632.34375,-237.24376,-604.3125,watch_2
26137487270664,-0.51445687,0.2973082,10.363914,-0.16676609,0.41370818,0.1802051,-631.05005,-237.80626,-603.825,watch_2
26137497270612,-0.51445687,0.2973082,10.363914,-0.16676609,0.41370818,0.1802051,-632.34375,-237.24376,-604.3125,watch_2
26137469342799,-0.51445687,0.2973082,10.363914,-0.16676609,0.41370818,0.1802051,-631.05005,-237.80626,-603.825,watch_2
26137483849726,0.11724831,-0.16689938,9.679565,-0.36712974,-1.0181589,0.14599667,-632.34375,-237.24376,-604.3125,watch_2
26137488964831,0.11724831,-0.16689938,9.679565,-0.36712974,-1.0181589,0.14599667,-632.34375,-237.24376,-604.3125,watch_2
26137503472695,0.11724831,-0.16689938,9.679565,-0.1960876,-0.82390386,0.05070178,-632.34375,-237.24376,-604.3125,watch_2
26137507270560,0.11724831,-0.16689938,9.679565,-0.1960876,-0.82390386,0.05070178,-630.46875,-238.18126,-602.85004,watch_2
26137517270508,0.11724831,-0.16689938,9.679565,-0.1960876,-0.82390386,0.05070178,-629.9625,-238.93126,-603.5813,watch_2
26137508587799,2.0267208,-0.20518455,9.095717,-0.049480047,2.0324998,-0.01282816,-629.9625,-238.93126,-603.5813,watch_2
26137523126706,2.0267208,-0.20518455,9.095717,-0.049480047,2.0324998,-0.01282816,-629.9625,-238.93126,-603.5813,watch_2
26137527270456,0.50009996,-0.17647067,9.827921,-0.049480047,2.0324998,-0.01282816,-629.9625,-238.93126,-603.5813,watch_2
26137528241810,0.50009996,-0.17647067,9.827921,-0.049480047,2.0324998,-0.01282816,-629.9625,-238.93126,-603.5813,watch_2
26137547863789,-1.524228,-0.09032906,9.717851,-0.049480047,2.0324998,-0.01282816,-629.9625,-238.93126,-603.5813,watch_2
26137542748685,-1.524228,-0.09032906,9.717851,-0.077579826,1.8138102,0.0030543238,-629.9625,-238.93126,-603.5813,watch_2
26137537270403,-1.524228,-0.09032906,9.717851,-0.077579826,1.8138102,0.0030543238,-628.5563,-236.90627,-604.5,watch_2
26137547270351,-1.524228,-0.09032906,9.717851,-0.077579826,1.8138102,0.0030543238,-628.5563,-236.90627,-604.5,watch_2
26137557270299,-0.38524446,-0.09032906,9.794421,-0.077579826,1.8138102,0.0030543238,-625.48126,-237.35626,-604.23755,watch_2
26137567517799,-0.38524446,-0.09032906,9.794421,-0.077579826,1.8138102,0.0030543238,-625.48126,-237.35626,-604.23755,watch_2
26137567270247,-0.38524446,-0.09032906,9.794421,-0.07513637,-1.1855358,-0.01282816,-630.22504,-238.06876,-606.0188,watch_2
26137577270195,-0.38524446,-0.09032906,9.794421,-0.07513637,-1.1855358,-0.01282816,-632.04376,-237.20625,-604.72504,watch_2
26137562402695,-0.38524446,-0.09032906,9.794421,-0.07513637,-1.1855358,-0.01282816,-629.3813,-237.26251,-606.0,watch_2
26137587270143,1.3136597,0.06759724,9.526425,-0.07513637,-1.1855358,-0.01282816,-631.5563,-237.95625,-606.48755,watch_2
26137597270091,1.3136597,0.06759724,9.526425,0.06658426,-1.6058108,-0.0140498895,-631.5563,-237.95625,-606.48755,watch_2
26137587140820,1.3136597,0.06759724,9.526425,0.06658426,-1.6058108,-0.0140498895,-631.5563,-237.95625,-606.48755,watch_2
26137582025716,1.3136597,0.06759724,9.526425,0.06658426,-1.6058108,-0.0140498895,-631.5563,-237.95625,-606.48755,watch_2
26137607270039,1.3136597,0.06759724,9.526425,0.06658426,-1.6058108,-0.0140498895,-630.48755,-236.56876,-604.8938,watch_2
26137606762799,0.91166544,-0.071186475,9.909277,0.034819294,0.51999867,-0.0030543238,-630.48755,-236.56876,-604.8938,watch_2
26137601647695,0.91166544,-0.071186475,9.909277,0.034819294,0.51999867,-0.0030543238,-632.0813,-239.06252,-603.9563,watch_2
26137617269987,0.91166544,-0.071186475,9.909277,0.034819294,0.51999867,-0.0030543238,-632.0813,-239.06252,-603.9563,watch_2
26137627269935,0.91166544,-0.071186475,9.909277,0.034819294,0.51999867,-0.0030543238,-633.15,-237.26251,-608.325,watch_2
26137626416810,-0.40438703,-0.23868406,9.67478,-0.07513637,1.322675,0.009162972,-633.15,-237.26251,-608.325,watch_2
26137621301706,-0.40438703,-0.23868406,9.67478,-0.07513637,1.322675,0.009162972,-630.2063,-236.51251,-606.3188,watch_2
26137637269883,-0.40438703,-0.23868406,9.67478,-0.07513637,1.322675,0.009162972,-630.2063,-236.51251,-606.3188,watch_2
26137647269831,-0.40438703,-0.23868406,9.67478,-0.07513637,1.322675,0.009162972,-634.3313,-235.55626,-609.5063,watch_2
26137657269778,-0.40438703,-0.23868406,9.67478,-0.07513637,1.322675,0.009162972,-634.3313,-235.55626,-609.5063,watch_2
26137646038789,-0.43788654,-0.19082761,9.717851,-0.033597562,-0.10063997,0.0042760535,-634.3313,-235.55626,-609.5063,watch_2
26137640923685,-0.43788654,-0.19082761,9.717851,-0.033597562,-0.10063997,0.0042760535,-634.3313,-235.55626,-609.5063,watch_2
26137667269726,-0.43788654,-0.19082761,9.717851,-0.033597562,-0.10063997,0.0042760535,-632.5688,-234.4875,-608.8313,watch_2
26137665692799,0.62452674,-0.037686955,9.736994,0.034819294,-0.98517215,-0.016493348,-632.5688,-234.4875,-608.8313,watch_2
26137660577695,0.62452674,-0.037686955,9.736994,0.034819294,-0.98517215,-0.016493348,-632.5688,-234.4875,-608.8313,watch_2
26137677269674,0.62452674,-0.037686955,9.736994,0.034819294,-0.98517215,-0.016493348,-632.4,-235.9125,-607.5,watch_2
26137687269622,0.62452674,-0.037686955,9.736994,0.034819294,-0.98517215,-0.016493348,-633.15,-236.02501,-607.1438,watch_2
26137685315820,0.6628119,-0.037686955,9.679565,-0.0018325944,-0.020005822,-0.005497783,-633.15,-236.02501,-607.1438,watch_2
26137680200716,0.6628119,-0.037686955,9.679565,-0.0018325944,-0.020005822,-0.005497783,-632.47504,-236.62502,-607.72504,watch_2
26137697269570,0.6628119,-0.037686955,9.679565,-0.0018325944,-0.020005822,-0.005497783,-632.47504,-236.62502,-607.72504,watch_2
26137707269518,0.6628119,-0.037686955,9.679565,-0.0018325944,-0.020005822,-0.005497783,-633.5625,-236.90627,-607.96875,watch_2
26137704937799,-0.14596218,0.00059820566,9.847063,0.018936807,0.7484621,0.0042760535,-633.5625,-236.90627,-607.96875,watch_2
26137699822695,-0.14596218,0.00059820566,9.847063,0.018936807,0.7484621,0.0042760535,-633.9375,-236.08125,-609.11255,watch_2
26137717269466,-0.14596218,0.00059820566,9.847063,0.018936807,0.7484621,0.0042760535,-633.9375,-236.08125,-609.11255,watch_2
26137727269414,-0.14596218,0.00059820566,9.847063,0.018936807,0.7484621,0.0042760535,-633.9375,-236.08125,-609.11255,watch_2
26137719476706,-0.14596218,0.00059820566,9.847063,-0.033597562,0.08872811,0.0042760535,-634.95,-235.95001,-608.5125,watch_2
26137737269362,-0.21774685,-0.15732808,9.698709,-0.033597562,0.08872811,0.0042760535,-634.95,-235.95001,-608.5125,watch_2
26137724591810,-0.21774685,-0.15732808,9.698709,-0.033597562,0.08872811,0.0042760535,-634.95,-235.95001,-608.5125,watch_2
26137747269310,-0.21774685,-0.15732808,9.698709,-0.033597562,0.08872811,0.0042760535,-633.84375,-235.55626,-606.97504,watch_2
26137744214831,0.64845496,-0.43968117,9.311071,-0.0042760535,-0.59910566,-0.0067195124,-633.84375,-235.55626,-606.97504,watch_2
26137739099726,0.64845496,-0.43968117,9.311071,-0.0042760535,-0.59910566,-0.0067195124,-631.98755,-235.35,-605.325,watch_2
26137757269258,0.64845496,-0.43968117,9.311071,-0.0042760535,-0.59910566,-0.0067195124,-631.98755,-235.35,-605.325,watch_2
26137767269206,-0.050249275,0.3068795,3.9415772,-0.0042760535,-0.59910566,-0.0067195124,-631.98755,-235.35,-605.325,watch_2
26137763836810,-0.050249275,0.3068795,3.9415772,-0.9156863,-0.17027856,-0.009162972,-631.98755,-235.35,-605.325,watch_2
26137758721706,-0.050249275,0.3068795,3.9415772,-0.9156863,-0.17027856,-0.009162972,-629.9625,-234.50626,-605.47504,watch_2
26137777269153,-0.050249275,0.3068795,3.9415772,-0.9156863,-0.17027856,-0.009162972,-629.9625,-234.50626,-605.47504,watch_2
26137787269101,-0.050249275,0.3068795,3.9415772,-0.9156863,-0.17027856,-0.009162972,-629.53125,-237.6,-603.9563,watch_2
26137783490820,0.72502524,-0.26739794,12.110674,-0.9156863,-0.17027856,-0.009162972,-629.53125,-237.6,-603.9563,watch_2
26137778375716,0.72502524,-0.26739794,12.110674,0.95844686,-0.7921389,-0.14110976,-629.53125,-237.6,-603.9563,watch_2
26137797269049,0.72502524,-0.26739794,12.110674,0.95844686,-0.7921389,-0.14110976,-631.275,-238.70625,-602.8875,watch_2
26137807268997,0.72502524,-0.26739794,12.110674,0.95844686,-0.7921389,-0.14110976,-632.23126,-237.675,-604.10626,watch_2
26137803112799,0.4953143,0.32123643,10.253843,0.17898338,0.604298,0.022601997,-632.23126,-237.675,-604.10626,watch_2
26137797997695,0.4953143,0.32123643,10.253843,0.17898338,0.604298,0.022601997,-632.23126,-237.675,-604.10626,watch_2
26137817268945,0.4953143,0.32123643,10.253843,0.17898338,0.604298,0.022601997,-630.11255,-237.39375,-604.3313,watch_2
26137827268893,0.4953143,0.32123643,10.253843,0.17898338,0.604298,0.022601997,-630.3375,-238.29376,-603.3938,watch_2
26137822766810,0.14596218,-0.066400826,9.579067,-0.08613193,0.4637991,0.09957096,-630.3375,-238.29376,-603.3938,watch_2
26137817651706,0.14596218,-0.066400826,9.579067,-0.08613193,0.4637991,0.09957096,-630.3375,-238.29376,-603.3938,watch_2
26137837268841,0.14596218,-0.066400826,9.579067,-0.08613193,0.4637991,0.09957096,-629.3813,-237.73126,-603.48755,watch_2
26137847268789,0.14596218,-0.066400826,9.579067,-0.08613193,0.4637991,0.09957096,-629.1188,-237.82501,-604.61255,watch_2
26137842389831,0.083748795,-0.29132617,9.291928,-0.12767074,0.28420484,0.010384701,-629.1188,-237.82501,-604.61255,watch_2
26137837274726,0.083748795,-0.29132617,9.291928,-0.12767074,0.28420484,0.010384701,-629.1188,-237.82501,-604.61255,watch_2
26137857268737,0.083748795,-0.29132617,9.291928,-0.12767074,0.28420484,0.010384701,-631.875,-237.0375,-604.85626,watch_2
26137867268685,0.083748795,-0.29132617,9.291928,-0.12767074,0.28420484,0.010384701,-630.8813,-236.04376,-605.41876,watch_2
26137862011810,0.13160525,-0.21475583,9.952348,-0.011606431,-0.14217877,0.0006108648,-630.8813,-236.04376,-605.41876,watch_2
26137856896706,0.13160525,-0.21475583,9.952348,-0.011606431,-0.14217877,0.0006108648,-630.8813,-236.04376,-605.41876,watch_2
26137877268633,0.13160525,-0.21475583,9.952348,-0.011606431,-0.14217877,0.0006108648,-632.90625,-234.80626,-609.2625,watch_2
26137887268581,0.13160525,-0.21475583,9.952348,-0.011606431,-0.14217877,0.0006108648,-634.3313,-235.55626,-609.78754,watch_2
26137881665820,0.40438703,-0.16689938,9.564711,-0.0006108648,-0.21181737,-0.0042760535,-634.3313,-235.55626,-609.78754,watch_2
26137876550716,0.40438703,-0.16689938,9.564711,-0.0006108648,-0.21181737,-0.0042760535,-634.3313,-235.55626,-609.78754,watch_2
26137897268528,0.40438703,-0.16689938,9.564711,-0.0006108648,-0.21181737,-0.0042760535,-634.03125,-235.68752,-608.5875,watch_2
26137907268476,0.40438703,-0.16689938,9.564711,-0.0006108648,-0.21181737,-0.0042760535,-633.67505,-235.21877,-607.85626,watch_2
26137901287799,0.2321038,-0.0424726,9.9140625,0.017715078,0.107054055,0.0006108648,-633.67505,-235.21877,-607.85626,watch_2
26137896172695,0.2321038,-0.0424726,9.9140625,0.017715078,0.107054055,0.0006108648,-633.67505,-235.21877,-610.72504,watch_2
26137917268424,0.2321038,-0.0424726,9.9140625,0.017715078,0.107054055,0.0006108648,-635.3063,-236.08125,-610.72504,watch_2
26137927268372,0.2321038,-0.0424726,9.9140625,0.017715078,0.107054055,0.0006108648,-633.7688,-235.9125,-609.54376,watch_2
26137920941810,-0.03589234,0.08673982,9.669994,0.017715078,0.107054055,0.0006108648,-633.7688,-235.9125,-609.54376,watch_2
26137915826706,-0.03589234,0.08673982,9.669994,0.017715078,0.18402301,0.0006108648,-632.66254,-235.50002,-608.73755,watch_2
26137937268320,-0.03589234,0.08673982,9.669994,0.017715078,0.18402301,0.0006108648,-632.66254,-235.50002,-608.73755,watch_2
26137947268268,-0.03589234,0.08673982,9.669994,0.017715078,0.18402301,0.0006108648,-633.5813,-235.78127,-607.65,watch_2
26137935449726,0.12203395,-0.07597212,9.799207,-0.016493348,-0.066431545,-0.0030543238,-633.5813,-235.78127,-607.65,watch_2
26137940564831,0.12203395,-0.07597212,9.799207,-0.016493348,-0.066431545,-0.0030543238,-633.5813,-235.78127,-607.65,watch_2
26137957268216,0.12203395,-0.07597212,9.799207,-0.016493348,-0.066431545,-0.0030543238,-633.825,-235.08751,-608.47504,watch_2
26137960186810,0.39960137,-0.19561325,9.689137,-0.005497783,-0.19349141,-0.0042760535,-633.65625,-234.91876,-608.90625,watch_2
26137967268164,0.39960137,-0.19561325,9.689137,-0.005497783,-0.19349141,-0.0042760535,-633.65625,-234.91876,-608.90625,watch_2
26137955071706,0.39960137,-0.19561325,9.689137,-0.005497783,-0.19349141,-0.0042760535,-633.65625,-234.91876,-608.90625,watch_2
26137977268112,0.39960137,-0.19561325,9.689137,-0.005497783,-0.19349141,-0.0042760535,-634.0688,-235.95001,-609.28125,watch_2
26137987268060,0.39960137,-0.19561325,9.689137,-0.005497783,-0.19349141,-0.0042760535,-633.3375,-234.90001,-608.15625,watch_2
26137979840820,0.3900301,-0.22911277,9.713065,-0.017715078,0.010537418,-0.0018325944,-633.3375,-234.90001,-608.15625,watch_2
26137974725716,0.3900301,-0.22911277,9.713065,-0.017715078,0.010537418,-0.0018325944,-633.3375,-234.90001,-608.15625,watch_2
26137997268008,0.3900301,-0.22911277,9.713065,-0.017715078,0.010537418,-0.0018325944,-633.6938,-235.20001,-609.3188,watch_2
26138007267956,0.3900301,-0.22911277,9.713065,-0.017715078,0.010537418,-0.0018325944,-632.5125,-237.09377,-606.375,watch_2
26137994348685,0.14117654,-0.052043892,9.78485,0.031154104,0.15714496,-0.0018325944,-632.5125,-237.09377,-606.375,watch_2
26137999463789,0.14117654,-0.052043892,9.78485,0.031154104,0.15714496,-0.0018325944,-632.5125,-237.09377,-606.375,watch_2
26138017267903,0.14117654,-0.052043892,9.78485,0.031154104,0.15714496,-0.0018325944,-634.3875,-235.83751,-610.2,watch_2
26138027267851,0.14117654,-0.052043892,9.78485,0.031154104,0.15714496,-0.0018325944,-634.0688,-235.96877,-608.85004,watch_2
26138019116810,0.050249275,-0.032901313,9.7704935,-0.01527162,0.03497201,-0.0018325944,-634.0688,-235.96877,-608.85004,watch_2
26138014001706,0.050249275,-0.032901313,9.7704935,-0.01527162,0.03497201,-0.0018325944,-634.0688,-235.96877,-608.85004,watch_2
26138037267799,0.050249275,-0.032901313,9.7704935,-0.01527162,0.03497201,-0.0018325944,-633.8813,-235.50002,-609.16876,watch_2
26138038739831,0.16510476,0.029312078,9.78485,-0.01527162,0.03497201,-0.0018325944,-634.40625,-236.60626,-607.23755,watch_2
26138047267747,0.16510476,0.029312078,9.78485,-0.01527162,0.03497201,-0.0018325944,-634.40625,-236.60626,-607.23755,watch_2
26138033624726,0.16510476,0.029312078,9.78485,0.016493348,-0.0810923,-0.0030543238,-634.40625,-236.60626,-607.23755,watch_2
26138057267695,0.16510476,0.029312078,9.78485,0.016493348,-0.0810923,-0.0030543238,-632.79376,-235.40627,-607.59375,watch_2
26138067267643,0.16510476,0.029312078,9.78485,0.016493348,-0.0810923,-0.0030543238,-632.17505,-234.99376,-609.16876,watch_2
26138058361810,0.23688944,-0.119042926,9.693923,-0.021380268,-0.012675445,-0.0018325944,-632.17505,-234.99376,-609.16876,watch_2
26138053246706,0.23688944,-0.119042926,9.693923,-0.021380268,-0.012675445,-0.0018325944,-632.17505,-234.99376,-609.16876,watch_2
26138077267591,0.23688944,-0.119042926,9.693923,-0.021380268,-0.012675445,-0.0018325944,-632.025,-233.71877,-608.55005,watch_2
26138087267539,0.25603202,-0.15732808,9.78485,-0.021380268,-0.012675445,-0.0018325944,-633.1313,-235.725,-607.8938,watch_2
26138078015820,0.25603202,-0.15732808,9.78485,-0.021380268,-0.012675445,-0.0018325944,-633.1313,-235.725,-607.8938,watch_2
26138072900716,0.25603202,-0.15732808,9.78485,0.0006108648,0.021532983,-0.0018325944,-633.1313,-235.725,-607.8938,watch_2
26138097267487,0.25603202,-0.15732808,9.78485,0.0006108648,0.021532983,-0.0018325944,-633.4313,-234.00002,-610.275,watch_2
26138107267435,0.27517462,-0.17647067,9.67478,0.0006108648,0.021532983,-0.0018325944,-632.2125,-235.44376,-608.4,watch_2
26138097638789,0.27517462,-0.17647067,9.67478,0.0006108648,0.021532983,-0.0018325944,-632.2125,-235.44376,-608.4,watch_2
26138092523685,0.27517462,-0.17647067,9.67478,-0.0067195124,-0.021227552,-0.0018325944,-632.2125,-235.44376,-608.4,watch_2
26138117267383,0.27517462,-0.17647067,9.67478,-0.0067195124,-0.021227552,-0.0018325944,-633.45,-234.31876,-609.525,watch_2
26138127267331,0.27517462,-0.17647067,9.67478,-0.0067195124,-0.021227552,-0.0018325944,-632.73755,-234.975,-607.6313,watch_2
26138112176706,0.27517462,-0.17647067,9.67478,0.0067195124,-0.005345067,-0.0006108648,-632.73755,-234.975,-607.6313,watch_2
26138117291810,0.2416751,-0.09990034,9.75135,0.0067195124,-0.005345067,-0.0006108648,-633.525,-236.62502,-608.0063,watch_2
26138137267278,0.2416751,-0.09990034,9.75135,0.0067195124,-0.005345067,-0.0006108648,-633.525,-236.62502,-608.0063,watch_2
26138131799726,0.12203395,0.00059820566,9.765707,0.011606431,0.05329795,-0.0018325944,-633.8813,-235.50002,-609.45,watch_2
26138147267226,0.12203395,0.00059820566,9.765707,0.011606431,0.05329795,-0.0018325944,-633.8813,-235.50002,-609.45,watch_2
26138136914831,0.12203395,0.00059820566,9.765707,0.011606431,0.05329795,-0.0018325944,-633.8813,-235.50002,-609.45,watch_2
26138157267174,0.12203395,0.00059820566,9.765707,0.011606431,0.05329795,-0.0018325944,-634.8188,-234.4875,-609.375,watch_2
26138151422695,0.12203395,0.00059820566,9.765707,-0.0067195124,0.028863361,-0.0030543238,-633.3375,-234.56252,-610.0688,watch_2
26138167267122,0.12203395,0.00059820566,9.765707,-0.0067195124,0.028863361,-0.0030543238,-633.3375,-234.56252,-610.0688,watch_2
26138177267070,0.09332009,-0.047258247,9.746565,-0.0067195124,0.028863361,-0.0030543238,-633.3375,-234.56252,-610.0688,watch_2
26138156537799,0.09332009,-0.047258247,9.746565,-0.0067195124,0.028863361,-0.0030543238,-633.3375,-234.56252,-610.0688,watch_2
26138176190820,0.20817557,-0.109471634,9.7609215,-0.005497783,-0.05421425,-0.0030543238,-633.3375,-234.56252,-610.0688,watch_2
26138171075716,0.20817557,-0.109471634,9.7609215,-0.005497783,-0.05421425,-0.0030543238,-633.3375,-234.56252,-610.0688,watch_2
26138187267018,0.20817557,-0.109471634,9.7609215,-0.005497783,-0.05421425,-0.0030543238,-633.75,-235.6125,-609.5813,watch_2
26138197266966,0.20817557,-0.109471634,9.7609215,-0.005497783,-0.05421425,-0.0030543238,-632.8313,-235.68752,-607.85626,watch_2
26138195813789,0.31345975,-0.14297116,9.703494,-0.007941242,-0.038331766,-0.0030543238,-632.8313,-235.68752,-607.85626,watch_2
26138190698685,0.31345975,-0.14297116,9.703494,-0.007941242,-0.038331766,-0.0030543238,-633.78754,-236.40001,-606.75,watch_2
26138207266914,0.31345975,-0.14297116,9.703494,-0.007941242,-0.038331766,-0.0030543238,-633.78754,-236.40001,-606.75,watch_2
26138217266862,0.31345975,-0.14297116,9.703494,-0.007941242,-0.038331766,-0.0030543238,-633.75,-235.6125,-609.5813,watch_2
26138215466810,0.27517462,-0.13339986,9.736994,-0.007941242,-0.038331766,-0.0030543238,-633.75,-235.6125,-609.5813,watch_2
26138210351706,0.27517462,-0.13339986,9.736994,0.0018325944,0.028863361,-0.0018325944,-633.8813,-234.24376,-608.7,watch_2
26138227266810,0.27517462,-0.13339986,9.736994,0.0018325944,0.028863361,-0.0018325944,-633.8813,-234.24376,-608.7,watch_2
26138237266758,0.27517462,-0.13339986,9.736994,0.0018325944,0.028863361,-0.0018325944,-632.2125,-235.76251,-606.6188,watch_2
26138235089831,0.19860429,-0.08075777,9.732208,0.0018325944,0.028863361,-0.0018325944,-632.2125,-235.76251,-606.6188,watch_2
26138229974726,0.19860429,-0.08075777,9.732208,0.0030543238,0.025198173,-0.0018325944,-634.0688,-237.225,-609.0188,watch_2
26138247266706,0.19860429,-0.08075777,9.732208,0.0030543238,0.025198173,-0.0018325944,-634.0688,-237.225,-609.0188,watch_2
26138257266653,0.19860429,-0.08075777,9.732208,0.0030543238,0.025198173,-0.0018325944,-631.3313,-234.675,-606.1875,watch_2
26138254712799,0.14596218,-0.032901313,9.756136,0.0030543238,0.025198173,-0.0018325944,-631.3313,-234.675,-606.1875,watch_2
26138249597695,0.14596218,-0.032901313,9.756136,0.0030543238,0.0056504994,-0.0018325944,-631.3313,-234.675,-606.1875,watch_2
26138267266601,0.14596218,-0.032901313,9.756136,0.0030543238,0.0056504994,-0.0018325944,-633.0,-238.51875,-608.47504,watch_2
26138277266549,0.14596218,-0.032901313,9.756136,0.0030543238,0.0056504994,-0.0018325944,-632.0063,-236.75626,-605.775,watch_2
26138274365820,0.1363909,-0.052043892,9.741779,-0.0030543238,0.009315688,-0.0018325944,-632.0063,-236.75626,-605.775,watch_2
26138269250716,0.1363909,-0.052043892,9.741779,-0.0030543238,0.009315688,-0.0018325944,-632.0063,-236.75626,-605.775,watch_2
26138287266497,0.1363909,-0.052043892,9.741779,-0.0030543238,0.009315688,-0.0018325944,-630.1875,-236.51251,-605.5875,watch_2
26138297266445,0.1363909,-0.052043892,9.741779,-0.0030543238,0.009315688,-0.0018325944,-630.6938,-236.85,-606.78754,watch_2
26138293988789,0.1794617,-0.123828575,9.736994,-0.0030543238,0.009315688,-0.0018325944,-630.6938,-236.85,-606.78754,watch_2
26138288873685,0.1794617,-0.123828575,9.736994,-0.005497783,-0.0065667965,-0.0030543238,-631.5188,-236.08125,-607.23755,watch_2
26138307266393,0.1794617,-0.123828575,9.736994,-0.005497783,-0.0065667965,-0.0030543238,-631.5188,-236.08125,-607.23755,watch_2
26138317266341,0.1794617,-0.123828575,9.736994,-0.005497783,-0.0065667965,-0.0030543238,-631.575,-237.15001,-604.66876,watch_2
26138313641810,0.27517462,-0.15254244,9.713065,-0.0042760535,-0.027336199,-0.0030543238,-631.575,-237.15001,-604.66876,watch_2
26138308526706,0.27517462,-0.15254244,9.713065,-0.0042760535,-0.027336199,-0.0030543238,-631.575,-237.15001,-604.66876,watch_2
26138327266289,0.27517462,-0.15254244,9.713065,-0.0042760535,-0.027336199,-0.0030543238,-631.1438,-236.90627,-606.825,watch_2
26138337266237,0.27517462,-0.15254244,9.713065,-0.0042760535,-0.027336199,-0.0030543238,-632.0813,-235.89375,-606.45,watch_2
26138333264831,0.27038896,-0.119042926,9.741779,0.0030543238,-0.0065667965,-0.0018325944,-632.0813,-235.89375,-606.45,watch_2
26138328149726,0.27038896,-0.119042926,9.741779,0.0030543238,-0.0065667965,-0.0018325944,-632.0813,-235.89375,-606.45,watch_2
26138347266185,0.27038896,-0.119042926,9.741779,0.0030543238,-0.0065667965,-0.0018325944,-631.6313,-237.4125,-605.3813,watch_2
26138357266133,0.27038896,-0.119042926,9.741779,0.0030543238,-0.0065667965,-0.0018325944,-631.16254,-237.52501,-604.0125,watch_2
26138352887799,0.20817557,-0.052043892,9.756136,0.005497783,0.03008509,-0.0018325944,-631.16254,-237.52501,-604.0125,watch_2
26138347772695,0.20817557,-0.052043892,9.756136,0.005497783,0.03008509,-0.0018325944,-631.16254,-237.52501,-604.0125,watch_2
26138367266081,0.20817557,-0.052043892,9.756136,0.005497783,0.03008509,-0.0018325944,-632.28754,-236.49376,-606.5625,watch_2
26138377266028,0.20817557,-0.052043892,9.756136,0.005497783,0.03008509,-0.0018325944,-632.1188,-236.32501,-606.7125,watch_2
26138372540820,0.16510476,-0.05682954,9.756136,-0.0006108648,0.0129808765,-0.0018325944,-632.1188,-236.32501,-606.7125,watch_2
26138367425716,0.16510476,-0.05682954,9.756136,-0.0006108648,0.0129808765,-0.0018325944,-632.1188,-236.32501,-606.7125,watch_2
26138387265976,0.16510476,-0.05682954,9.756136,-0.0006108648,0.0129808765,-0.0018325944,-629.04376,-237.88126,-607.95,watch_2
26138397265924,0.16510476,-0.05682954,9.756136,-0.0006108648,0.0129808765,-0.0018325944,-631.48126,-238.33125,-608.025,watch_2
26138387048685,0.1698904,-0.066400826,9.746565,-0.0030543238,-0.007788526,-0.0030543238,-631.48126,-238.33125,-608.025,watch_2
26138392163789,0.1698904,-0.066400826,9.746565,-0.0030543238,-0.007788526,-0.0030543238,-631.48126,-238.33125,-608.025,watch_2
26138407265872,0.1698904,-0.066400826,9.746565,-0.0030543238,-0.007788526,-0.0030543238,-631.48126,-238.33125,-608.025,watch_2
26138417265820,0.1698904,-0.066400826,9.746565,-0.0030543238,-0.007788526,-0.0030543238,-632.1188,-239.00626,-606.4313,watch_2
26138411816810,0.20817557,-0.123828575,9.736994,-0.005497783,-0.004123337,-0.0018325944,-632.1188,-239.00626,-606.4313,watch_2
26138406701706,0.20817557,-0.123828575,9.736994,-0.005497783,-0.004123337,-0.0018325944,-632.1188,-239.00626,-606.4313,watch_2
26138427265768,0.20817557,-0.123828575,9.736994,-0.005497783,-0.004123337,-0.0018325944,-631.9313,-235.70625,-607.61255,watch_2
26138437265716,0.20817557,-0.123828575,9.736994,-0.005497783,-0.004123337,-0.0018325944,-633.9375,-237.675,-607.65,watch_2
26138431439831,0.22731815,-0.15254244,9.717851,-0.0030543238,-0.004123337,-0.0018325944,-633.9375,-237.675,-607.65,watch_2
26138426324726,0.22731815,-0.15254244,9.717851,-0.0030543238,-0.004123337,-0.0018325944,-633.9375,-237.675,-607.65,watch_2
26138447265664,0.22731815,-0.15254244,9.717851,-0.0030543238,-0.004123337,-0.0018325944,-631.5,-237.20625,-607.5563,watch_2
26138457265612,0.22731815,-0.15254244,9.717851,-0.0030543238,-0.004123337,-0.0018325944,-634.0875,-237.8625,-606.0563,watch_2
26138445947695,0.2416751,-0.12861422,9.741779,0.0006108648,-0.004123337,-0.0018325944,-634.0875,-237.8625,-606.0563,watch_2
26138451062799,0.2416751,-0.12861422,9.741779,0.0006108648,-0.004123337,-0.0018325944,-634.0875,-237.8625,-606.0563,watch_2
26138467265560,0.2416751,-0.12861422,9.741779,0.0006108648,-0.004123337,-0.0018325944,-632.8313,-237.26251,-606.84375,watch_2
26138470715820,0.21774685,-0.071186475,9.75135,0.0030543238,0.008093959,-0.0018325944,-632.8313,-237.26251,-606.84375,watch_2
26138465600716,0.21774685,-0.071186475,9.75135,0.0030543238,0.008093959,-0.0018325944,-632.8313,-237.26251,-606.84375,watch_2
26138477265508,0.21774685,-0.071186475,9.75135,0.0030543238,0.008093959,-0.0018325944,-631.8375,-236.58751,-605.92505,watch_2
26138487265456,0.21774685,-0.071186475,9.75135,0.0030543238,0.008093959,-0.0018325944,-631.8375,-236.58751,-605.92505,watch_2
26138497265403,0.21774685,-0.071186475,9.75135,0.0030543238,0.008093959,-0.0018325944,-634.0125,-236.81252,-608.625,watch_2
26138490338789,0.1698904,-0.037686955,9.756136,0.0006108648,0.016646065,-0.0018325944,-634.0125,-236.81252,-608.625,watch_2
26138485223685,0.1698904,-0.037686955,9.756136,0.0006108648,0.016646065,-0.0018325944,-634.0125,-236.81252,-608.625,watch_2
26138507265351,0.1698904,-0.037686955,9.756136,0.0006108648,0.016646065,-0.0018325944,-631.5188,-236.08125,-607.53754,watch_2
26138517265299,0.1698904,-0.037686955,9.756136,0.0006108648,0.016646065,-0.0018325944,-634.66876,-236.19376,-608.025,watch_2
26138509991810,0.18424734,-0.07597212,9.746565,0.0006108648,0.016646065,-0.0018325944,-634.66876,-236.19376,-608.025,watch_2
26138504876706,0.18424734,-0.07597212,9.746565,-0.0030543238,-0.0016798781,-0.0030543238,-634.66876,-236.19376,-608.025,watch_2
26138527265247,0.18424734,-0.07597212,9.746565,-0.0030543238,-0.0016798781,-0.0030543238,-633.9563,-236.55,-606.9,watch_2
26138537265195,0.18424734,-0.07597212,9.746565,-0.0030543238,-0.0016798781,-0.0030543238,-633.3188,-237.76875,-605.98126,watch_2
26138529614831,0.21296121,-0.123828575,9.736994,-0.0030543238,-0.013897174,-0.0018325944,-633.3188,-237.76875,-605.98126,watch_2
26138524499726,0.21296121,-0.123828575,9.736994,-0.0030543238,-0.013897174,-0.0018325944,-633.3188,-237.76875,-605.98126,watch_2
26138547265143,0.21296121,-0.123828575,9.736994,-0.0030543238,-0.013897174,-0.0018325944,-632.7,-236.2875,-605.60626,watch_2
26138557265091,0.21296121,-0.123828575,9.736994,-0.0030543238,-0.013897174,-0.0018325944,-632.98126,-237.45001,-605.9625,watch_2
26138544122695,0.2321038,-0.12861422,9.722636,-0.0030543238,0.00320704,-0.0018325944,-632.98126,-237.45001,-605.9625,watch_2
26138549237799,0.2321038,-0.12861422,9.722636,-0.0030543238,0.00320704,-0.0018325944,-632.98126,-237.45001,-605.9625,watch_2
26138567265039,0.2321038,-0.12861422,9.722636,-0.0030543238,0.00320704,-0.0018325944,-633.2438,-236.40001,-609.5813,watch_2
26138577264987,0.22253251,-0.09990034,9.746565,-0.0030543238,0.00320704,-0.0018325944,-632.1938,-235.48126,-606.9375,watch_2
26138568890820,0.22253251,-0.09990034,9.746565,0.0018325944,0.0056504994,-0.0018325944,-632.1938,-235.48126,-606.9375,watch_2
26138563775716,0.22253251,-0.09990034,9.746565,0.0018325944,0.0056504994,-0.0018325944,-632.1938,-235.48126,-606.9375,watch_2
26138587264935,0.22253251,-0.09990034,9.746565,0.0018325944,0.0056504994,-0.0018325944,-632.41876,-236.38126,-606.0,watch_2
26138588513789,0.20817557,-0.061615184,9.746565,0.0030543238,0.00076358096,-0.0018325944,-631.05005,-237.31876,-606.6375,watch_2
26138583398685,0.20817557,-0.061615184,9.746565,0.0030543238,0.00076358096,-0.0018325944,-631.05005,-237.31876,-606.6375,watch_2
26138597264883,0.20817557,-0.061615184,9.746565,0.0030543238,0.00076358096,-0.0018325944,-631.05005,-237.31876,-606.6375,watch_2
26138607264831,0.20817557,-0.061615184,9.746565,0.0030543238,0.00076358096,-0.0018325944,-635.4375,-236.30626,-608.10004,watch_2
26138617264778,0.20817557,-0.061615184,9.746565,0.0030543238,0.00076358096,-0.0018325944,-631.98755,-236.11876,-608.3063,watch_2
26138608166810,0.1794617,-0.066400826,9.75135,0.0006108648,0.0056504994,-0.0018325944,-631.98755,-236.11876,-608.3063,watch_2
26138603051706,0.1794617,-0.066400826,9.75135,0.0006108648,0.0056504994,-0.0018325944,-631.98755,-236.11876,-608.3063,watch_2
26138627264726,0.1794617,-0.066400826,9.75135,0.0006108648,0.0056504994,-0.0018325944,-631.61255,-236.62502,-608.9438,watch_2
26138637264674,0.18903299,-0.08554341,9.75135,0.0006108648,0.0056504994,-0.0018325944,-631.78125,-235.85626,-606.41254,watch_2
26138627789831,0.18903299,-0.08554341,9.75135,0.0006108648,0.0056504994,-0.0018325944,-631.78125,-235.85626,-606.41254,watch_2
26138622674726,0.18903299,-0.08554341,9.75135,-0.0006108648,0.0019853106,-0.0018325944,-630.375,-233.6625,-608.2125,watch_2
26138647264622,0.18903299,-0.08554341,9.75135,-0.0006108648,0.0019853106,-0.0018325944,-630.375,-233.6625,-608.2125,watch_2
26138657264570,0.20817557,-0.119042926,9.722636,-0.0006108648,0.0019853106,-0.0018325944,-632.7563,-236.53127,-607.3313,watch_2
26138647412799,0.20817557,-0.119042926,9.722636,-0.0006108648,0.0019853106,-0.0018325944,-632.7563,-236.53127,-607.3313,watch_2
26138642297695,0.20817557,-0.119042926,9.722636,-0.0030543238,-0.0065667965,-0.0018325944,-632.7563,-236.53127,-607.3313,watch_2
26138667264518,0.20817557,-0.119042926,9.722636,-0.0030543238,-0.0065667965,-0.0018325944,-632.10004,-234.75002,-606.9938,watch_2
26138677264466,0.2321038,-0.123828575,9.732208,-0.0030543238,-0.0065667965,-0.0018325944,-634.2,-237.43126,-607.42505,watch_2
26138667065820,0.2321038,-0.123828575,9.732208,0.0006108648,-0.004123337,-0.0018325944,-634.2,-237.43126,-607.42505,watch_2
26138661950716,0.2321038,-0.123828575,9.732208,0.0006108648,-0.004123337,-0.0018325944,-634.2,-237.43126,-607.42505,watch_2
26138687264414,0.2321038,-0.123828575,9.732208,0.0006108648,-0.004123337,-0.0018325944,-633.35626,-237.73126,-607.72504,watch_2
26138686688789,0.21296121,-0.09032906,9.741779,0.0006108648,-0.004123337,-0.0018325944,-633.35626,-237.73126,-607.72504,watch_2
26138681573685,0.21296121,-0.09032906,9.741779,0.0018325944,0.008093959,-0.0018325944,-633.35626,-237.73126,-607.72504,watch_2
26138697264362,0.21296121,-0.09032906,9.741779,0.0018325944,0.008093959,-0.0018325944,-632.3063,-236.475,-606.86255,watch_2
26138707264310,0.21296121,-0.09032906,9.741779,0.0018325944,0.008093959,-0.0018325944,-634.4625,-235.29376,-609.3938,watch_2
26138706341810,0.20338993,-0.061615184,9.756136,0.0018325944,0.0056504994,-0.0018325944,-634.4625,-235.29376,-609.3938,watch_2
26138701226706,0.20338993,-0.061615184,9.756136,0.0018325944,0.0056504994,-0.0018325944,-634.8188,-236.06252,-608.6438,watch_2
26138717264258,0.20338993,-0.061615184,9.756136,0.0018325944,0.0056504994,-0.0018325944,-634.8188,-236.06252,-608.6438,watch_2
26138727264206,0.20338993,-0.061615184,9.756136,0.0018325944,0.0056504994,-0.0018325944,-634.72504,-236.15627,-610.5,watch_2
26138725964831,0.18424734,-0.061615184,9.741779,-0.0006108648,-0.0004581486,-0.0018325944,-634.72504,-236.15627,-610.5,watch_2
26138720849726,0.18424734,-0.061615184,9.741779,-0.0006108648,-0.0004581486,-0.0018325944,-634.72504,-236.15627,-610.5,watch_2
26138737264153,0.18424734,-0.061615184,9.741779,-0.0006108648,-0.0004581486,-0.0018325944,-634.03125,-235.68752,-608.15625,watch_2
26138747264101,0.18424734,-0.061615184,9.741779,-0.0006108648,-0.0004581486,-0.0018325944,-633.84375,-235.06876,-609.78754,watch_2
26138745587799,0.19860429,-0.08554341,9.7609215,-0.0006108648,-0.0004581486,-0.0018325944,-633.84375,-235.06876,-609.78754,watch_2
26138740472695,0.19860429,-0.08554341,9.7609215,-0.0030543238,0.0019853106,-0.0018325944,-633.91876,-235.78127,-609.4313,watch_2
26138767263997,0.19860429,-0.08554341,9.7609215,-0.0030543238,0.0019853106,-0.0018325944,-633.375,-235.18126,-608.5688,watch_2
26138757264049,0.19860429,-0.08554341,9.7609215,-0.0030543238,0.0019853106,-0.0018325944,-633.91876,-235.78127,-609.4313,watch_2
26138765240820,0.20817557,-0.10468599,9.727423,-0.0030543238,0.0019853106,-0.0018325944,-633.375,-235.18126,-608.5688,watch_2
26138777263945,0.20817557,-0.10468599,9.727423,-0.0030543238,-0.0004581486,-0.0018325944,-633.73126,-235.1625,-611.0625,watch_2
26138787263893,0.20817557,-0.10468599,9.727423,-0.0030543238,-0.0004581486,-0.0018325944,-633.73126,-235.1625,-611.0625,watch_2
26138760125716,0.20817557,-0.10468599,9.727423,-0.0030543238,-0.0004581486,-0.0018325944,-633.6375,-234.93752,-608.17505,watch_2
26138784863789,0.20338993,-0.13339986,9.732208,-0.0030543238,-0.0004581486,-0.0018325944,-633.73126,-235.1625,-611.0625,watch_2
26138797263841,0.20338993,-0.13339986,9.732208,-0.0030543238,0.00320704,-0.0018325944,-634.78125,-236.88751,-609.1313,watch_2
26138779748685,0.20338993,-0.13339986,9.732208,-0.0030543238,0.00320704,-0.0018325944,-634.78125,-236.88751,-609.1313,watch_2
26138807263789,0.20338993,-0.13339986,9.732208,-0.0030543238,0.00320704,-0.0018325944,-634.4625,-236.85,-609.09375,watch_2
26138817263737,0.20338993,-0.13339986,9.732208,-0.0030543238,0.00320704,-0.0018325944,-636.67505,-236.26875,-610.275,watch_2
26138804516810,0.19860429,-0.09990034,9.736994,-0.0030543238,0.00320704,-0.0018325944,-636.67505,-236.26875,-610.275,watch_2
