# Session ID: 20250816_124430
# Start Time: 1755341070542
# Device ID: watch_1
# Sample Count: 3306
# Generated by Watch IMU Recorder
timestamp,accel_x,accel_y,accel_z,gyro_x,gyro_y,gyro_z,mag_x,mag_y,mag_z,watch_name
26124310016850,0.15314065,-0.13040884,9.826724,0.0,0.0,0.0,0.0,0.0,0.0,watch_1
26124329089871,0.14356937,-0.12562318,9.807582,0.0,0.0,0.0,0.0,0.0,0.0,watch_1
26124348163882,0.15314065,-0.14476576,9.812367,0.0,0.0,0.0,0.0,0.0,0.0,watch_1
26124367236850,0.16749759,-0.13998012,9.812367,0.0,0.0,0.0,0.0,0.0,0.0,watch_1
26124384423361,0.16749759,-0.13998012,9.812367,0.0,0.0,0.0,-89.5875,13.368751,47.34375,watch_1
26124386310861,0.17228323,-0.15433706,9.807582,0.0,0.0,0.0,-88.21875,15.450001,44.8125,watch_1
26124394423309,0.17228323,-0.15433706,9.807582,0.0,0.0,0.0,-88.21875,15.450001,44.8125,watch_1
26124404423257,0.17228323,-0.15433706,9.807582,0.0,0.0,0.0,-89.71875,15.4125,44.0625,watch_1
26124414423205,0.17228323,-0.15433706,9.807582,0.0,0.0,0.0,-89.793755,14.83125,44.41875,watch_1
26124405383882,0.16749759,-0.13519448,9.807582,0.0024434591,0.0018325944,-0.0004581486,-89.793755,14.83125,44.41875,watch_1
26124400421121,0.16749759,-0.13519448,9.807582,0.0024434591,0.0018325944,-0.0004581486,-89.793755,14.83125,44.41875,watch_1
26124424423152,0.16749759,-0.13519448,9.807582,0.0024434591,0.0018325944,-0.0004581486,-90.600006,14.306251,44.362503,watch_1
26124424426850,0.148355,-0.12562318,9.807582,-0.0012217296,0.0018325944,-0.0004581486,-90.600006,14.306251,44.362503,watch_1
26124434423100,0.148355,-0.12562318,9.807582,-0.0012217296,0.0018325944,-0.0004581486,-90.825005,14.981251,44.268753,watch_1
26124444423048,0.148355,-0.12562318,9.807582,-0.0012217296,0.0018325944,-0.0004581486,-89.418755,15.450001,44.100002,watch_1
26124419464090,0.148355,-0.12562318,9.807582,-0.0012217296,0.0018325944,-0.0004581486,-90.600006,14.306251,44.362503,watch_1
26124443500861,0.13878371,-0.12083755,9.802796,0.0,0.0030543238,-0.0004581486,-89.418755,15.450001,44.100002,watch_1
26124438538100,0.13878371,-0.12083755,9.802796,0.0,0.0030543238,-0.0004581486,-87.46875,15.243751,45.9375,watch_1
26124454422996,0.13878371,-0.12083755,9.802796,0.0,0.0030543238,-0.0004581486,-87.46875,15.243751,45.9375,watch_1
26124464422944,0.13878371,-0.12083755,9.802796,0.0,0.0030543238,-0.0004581486,-89.925,14.962501,44.23125,watch_1
26124457611121,0.14356937,-0.13998012,9.807582,-0.0024434591,-0.0018325944,-0.0004581486,-88.74375,14.981251,43.65,watch_1
26124462573882,0.14356937,-0.13998012,9.807582,-0.0024434591,-0.0018325944,-0.0004581486,-89.925,14.962501,44.23125,watch_1
26124474422892,0.14356937,-0.13998012,9.807582,-0.0024434591,-0.0018325944,-0.0004581486,-88.74375,14.981251,43.65,watch_1
26124484422840,0.14356937,-0.13998012,9.807582,-0.0024434591,-0.0018325944,-0.0004581486,-89.26875,15.3,45.0,watch_1
26124481647892,0.16271193,-0.1591227,9.802796,-0.0012217296,-0.0018325944,-0.0016798781,-89.71875,13.968751,45.075,watch_1
26124476685132,0.16271193,-0.1591227,9.802796,-0.0012217296,-0.0018325944,-0.0016798781,-89.71875,13.968751,45.075,watch_1
26124494422788,0.16271193,-0.1591227,9.802796,-0.0012217296,-0.0018325944,-0.0016798781,-89.71875,13.968751,45.075,watch_1
26124504422736,0.16271193,-0.1591227,9.802796,-0.0012217296,-0.0018325944,-0.0016798781,-88.4625,15.656251,46.800003,watch_1
26124495758100,0.16749759,-0.14476576,9.793225,0.0,-0.0018325944,-0.0004581486,-88.4625,15.656251,46.800003,watch_1
26124500720861,0.16749759,-0.14476576,9.793225,0.0,-0.0018325944,-0.0004581486,-88.668755,15.543751,44.175003,watch_1
26124514422684,0.16749759,-0.14476576,9.793225,0.0,-0.0018325944,-0.0004581486,-88.668755,15.543751,44.175003,watch_1
26124524422632,0.16749759,-0.14476576,9.793225,0.0,-0.0018325944,-0.0004581486,-87.262505,14.250001,47.081253,watch_1
26124519794871,0.17228323,-0.14476576,9.802796,0.0,0.0006108648,-0.0004581486,-87.262505,14.250001,47.081253,watch_1
26124514832111,0.17228323,-0.14476576,9.802796,0.0,0.0006108648,-0.0004581486,-87.262505,14.250001,47.081253,watch_1
26124534422580,0.17228323,-0.14476576,9.802796,0.0,0.0006108648,-0.0004581486,-90.450005,14.175,44.68125,watch_1
26124544422527,0.17228323,-0.14476576,9.802796,0.0,0.0006108648,-0.0004581486,-89.475006,13.593751,44.850002,watch_1
26124538867892,0.17228323,-0.13519448,9.812367,0.0,0.0018325944,-0.0004581486,-89.475006,13.593751,44.850002,watch_1
26124533905132,0.17228323,-0.13519448,9.812367,0.0,0.0018325944,-0.0004581486,-89.475006,13.593751,44.850002,watch_1
26124554422475,0.17228323,-0.13519448,9.812367,0.0,0.0018325944,-0.0004581486,-89.30625,15.356251,42.956253,watch_1
26124557941850,0.15314065,-0.13040884,9.798011,-0.0024434591,0.0018325944,-0.0004581486,-88.93125,17.212502,43.987503,watch_1
26124552979090,0.15314065,-0.13040884,9.798011,-0.0024434591,0.0018325944,-0.0004581486,-89.49375,17.8875,41.8125,watch_1
26124574422371,0.15314065,-0.13040884,9.798011,-0.0024434591,0.0018325944,-0.0004581486,-89.49375,17.8875,41.8125,watch_1
26124584422319,0.15314065,-0.13040884,9.798011,-0.0024434591,0.0018325944,-0.0004581486,-88.5,16.987501,44.0625,watch_1
26124564422423,0.17228323,-0.13519448,9.812367,0.0,0.0018325944,-0.0004581486,-88.93125,17.212502,43.987503,watch_1
26124594422267,0.15314065,-0.13998012,9.802796,-0.0012217296,0.0006108648,-0.0004581486,-88.8,15.675,44.287502,watch_1
26124572052111,0.15314065,-0.13998012,9.802796,-0.0012217296,0.0006108648,-0.0004581486,-88.8,15.675,44.287502,watch_1
26124577014871,0.15314065,-0.13998012,9.802796,-0.0012217296,0.0006108648,-0.0004581486,-88.8,15.675,44.287502,watch_1
26124604422215,0.16749759,-0.15433706,9.798011,-0.0012217296,0.0006108648,-0.0004581486,-88.8375,15.075001,45.375,watch_1
26124596057892,0.16749759,-0.15433706,9.798011,-0.0012217296,0.0006108648,-0.0004581486,-88.8375,15.075001,45.375,watch_1
26124614422163,0.16749759,-0.15433706,9.798011,-0.0012217296,-0.0018325944,-0.0004581486,-89.025,16.518751,43.03125,watch_1
26124591095132,0.16749759,-0.15433706,9.798011,-0.0012217296,-0.0018325944,-0.0004581486,-89.025,16.518751,43.03125,watch_1
26124624422111,0.16749759,-0.15433706,9.798011,-0.0012217296,-0.0018325944,-0.0004581486,-89.55,14.137501,45.225002,watch_1
26124615131850,0.16271193,-0.15433706,9.802796,0.0012217296,-0.0018325944,-0.0004581486,-89.100006,17.38125,42.05625,watch_1
26124634422059,0.16271193,-0.15433706,9.802796,0.0012217296,-0.0018325944,-0.0004581486,-89.100006,17.38125,42.05625,watch_1
26124610169090,0.16271193,-0.15433706,9.802796,0.0012217296,-0.0018325944,-0.0004581486,-89.100006,17.38125,42.05625,watch_1
26124634204871,0.16271193,-0.13998012,9.802796,-0.0012217296,-0.0018325944,-0.0004581486,-89.100006,17.38125,42.05625,watch_1
26124629242111,0.16271193,-0.13998012,9.802796,-0.0012217296,-0.0018325944,-0.0004581486,-88.4625,14.56875,45.018753,watch_1
26124644422007,0.16271193,-0.13998012,9.802796,-0.0012217296,-0.0018325944,-0.0004581486,-88.4625,14.56875,45.018753,watch_1
26124654421955,0.16271193,-0.13998012,9.802796,-0.0012217296,-0.0018325944,-0.0004581486,-89.700005,14.26875,44.775,watch_1
26124653278882,0.17228323,-0.13998012,9.8219385,-0.0012217296,-0.0018325944,-0.0004581486,-89.700005,14.26875,44.775,watch_1
26124648316121,0.17228323,-0.13998012,9.8219385,0.0,0.0018325944,-0.0004581486,-89.700005,14.26875,44.775,watch_1
26124664421902,0.17228323,-0.13998012,9.8219385,0.0,0.0018325944,-0.0004581486,-88.89375,14.64375,45.112503,watch_1
26124674421850,0.17228323,-0.13998012,9.8219385,0.0,0.0018325944,-0.0004581486,-89.043755,16.21875,43.48125,watch_1
26124672351850,0.15314065,-0.13040884,9.817153,-0.0012217296,0.0018325944,-0.0004581486,-89.568756,15.58125,43.93125,watch_1
26124667389090,0.15314065,-0.13040884,9.817153,-0.0012217296,0.0018325944,-0.0004581486,-89.568756,15.58125,43.93125,watch_1
26124684421798,0.15314065,-0.13040884,9.817153,-0.0012217296,0.0018325944,-0.0004581486,-89.568756,15.58125,43.93125,watch_1
26124694421746,0.15314065,-0.13040884,9.817153,-0.0012217296,0.0018325944,-0.0004581486,-89.287506,15.637501,42.6375,watch_1
26124691425861,0.15792629,-0.14955142,9.802796,-0.0024434591,0.0018325944,-0.0004581486,-87.8625,14.812501,43.912502,watch_1
26124704421694,0.15792629,-0.14955142,9.802796,-0.0024434591,0.0018325944,-0.0004581486,-87.8625,14.812501,43.912502,watch_1
26124686463100,0.15792629,-0.14955142,9.802796,-0.0024434591,0.0018325944,-0.0004581486,-87.8625,14.812501,43.912502,watch_1
26124714421642,0.15792629,-0.14955142,9.802796,-0.0024434591,0.0018325944,-0.0004581486,-88.36875,17.19375,42.16875,watch_1
26124710498882,0.16271193,-0.14476576,9.802796,-0.0024434591,0.0018325944,-0.0004581486,-88.36875,17.19375,42.16875,watch_1
26124705536121,0.16271193,-0.14476576,9.802796,0.0,-0.0006108648,-0.0004581486,-88.36875,17.19375,42.16875,watch_1
26124724421590,0.16271193,-0.14476576,9.802796,0.0,-0.0006108648,-0.0004581486,-90.262505,16.5375,41.1375,watch_1
26124734421538,0.16271193,-0.14476576,9.802796,0.0,-0.0006108648,-0.0004581486,-89.71875,16.987501,42.75,watch_1
26124729571850,0.16271193,-0.13998012,9.793225,0.0,-0.0006108648,-0.0004581486,-89.71875,16.987501,42.75,watch_1
26124724609090,0.16271193,-0.13998012,9.793225,0.0,-0.0006108648,-0.0004581486,-88.55625,14.025001,43.331253,watch_1
26124744421486,0.16271193,-0.13998012,9.793225,0.0,-0.0006108648,-0.0004581486,-88.55625,14.025001,43.331253,watch_1
26124754421434,0.16271193,-0.13998012,9.793225,0.0,-0.0006108648,-0.0004581486,-89.53125,14.45625,43.893753,watch_1
26124748614871,0.17228323,-0.12562318,9.802796,0.0,-0.0006108648,-0.0004581486,-89.53125,14.45625,43.893753,watch_1
26124743652111,0.17228323,-0.12562318,9.802796,0.0012217296,-0.0006108648,-0.0004581486,-89.53125,14.45625,43.893753,watch_1
26124764421382,0.17228323,-0.12562318,9.802796,0.0012217296,-0.0006108648,-0.0004581486,-88.55625,15.13125,44.8125,watch_1
26124774421330,0.17228323,-0.12562318,9.802796,0.0012217296,-0.0006108648,-0.0004581486,-90.918755,13.968751,45.09375,watch_1
26124767688882,0.16271193,-0.13998012,9.802796,0.0012217296,-0.0006108648,-0.0004581486,-90.918755,13.968751,45.09375,watch_1
26124784421277,0.16271193,-0.13998012,9.802796,-0.0012217296,-0.0006108648,-0.0004581486,-88.96875,16.44375,46.3875,watch_1
26124794421225,0.16271193,-0.13998012,9.802796,-0.0012217296,-0.0006108648,-0.0004581486,-88.96875,16.44375,46.3875,watch_1
26124786761850,0.16749759,-0.13998012,9.807582,-0.0012217296,0.0018325944,-0.0004581486,-88.96875,16.44375,46.3875,watch_1
26124762726121,0.16749759,-0.13998012,9.807582,-0.0012217296,0.0018325944,-0.0004581486,-88.96875,16.44375,46.3875,watch_1
26124804421173,0.16749759,-0.13998012,9.807582,-0.0012217296,0.0018325944,-0.0004581486,-89.775,14.83125,44.850002,watch_1
26124781799090,0.16749759,-0.13998012,9.807582,-0.0012217296,0.0018325944,-0.0004581486,-88.96875,14.83125,44.850002,watch_1
26124814421121,0.15314065,-0.1591227,9.802796,-0.0024434591,-0.0006108648,-0.0004581486,-87.58125,12.975,45.581253,watch_1
26124805835861,0.15314065,-0.1591227,9.802796,-0.0024434591,-0.0006108648,-0.0004581486,-88.275,13.293751,46.18125,watch_1
26124834421017,0.17228323,-0.14476576,9.802796,-0.0024434591,-0.0006108648,-0.0004581486,-87.84375,14.793751,44.925003,watch_1
26124824908882,0.17228323,-0.14476576,9.802796,-0.0012217296,0.0018325944,-0.0004581486,-87.84375,14.793751,44.925003,watch_1
26124819946121,0.17228323,-0.14476576,9.802796,-0.0012217296,0.0018325944,-0.0004581486,-87.84375,14.793751,44.925003,watch_1
26124824421069,0.17228323,-0.14476576,9.802796,-0.0012217296,0.0018325944,-0.0004581486,-88.818756,14.26875,43.987503,watch_1
26124844420965,0.17228323,-0.14476576,9.802796,-0.0012217296,0.0018325944,-0.0004581486,-88.818756,14.26875,43.987503,watch_1
26124843982892,0.15792629,-0.13040884,9.798011,0.0,0.0006108648,-0.0004581486,-88.818756,14.26875,43.987503,watch_1
26124854420913,0.15792629,-0.13040884,9.798011,0.0,0.0006108648,-0.0004581486,-88.59375,14.681251,45.43125,watch_1
26124839020132,0.15792629,-0.13040884,9.798011,0.0,0.0006108648,-0.0004581486,-89.2125,15.562501,46.725002,watch_1
26124800873100,0.15314065,-0.1591227,9.802796,-0.0024434591,-0.0006108648,-0.0004581486,-87.84375,14.793751,44.925003,watch_1
26124858093100,0.17228323,-0.13519448,9.798011,0.0,-0.0018325944,-0.0004581486,-87.76875,15.20625,45.91875,watch_1
26124874420809,0.17228323,-0.13519448,9.798011,0.0,-0.0018325944,-0.0004581486,-88.14375,16.181252,44.025,watch_1
26124884420757,0.17228323,-0.13519448,9.798011,0.0,-0.0018325944,-0.0004581486,-88.14375,16.181252,44.025,watch_1
26124863055861,0.17228323,-0.13519448,9.798011,0.0,-0.0018325944,-0.0004581486,-88.14375,16.181252,44.025,watch_1
26124864420861,0.17228323,-0.13519448,9.798011,0.0,-0.0018325944,-0.0004581486,-88.14375,16.181252,44.025,watch_1
26124882129871,0.16271193,-0.13040884,9.778868,0.0012217296,0.0006108648,-0.0004581486,-88.14375,16.181252,44.025,watch_1
26124894420705,0.16271193,-0.13040884,9.778868,0.0012217296,0.0006108648,-0.0004581486,-88.275,13.275001,46.7625,watch_1
26124904420652,0.16271193,-0.13040884,9.778868,0.0012217296,0.0006108648,-0.0004581486,-88.275,13.275001,46.7625,watch_1
26124877167111,0.16271193,-0.13040884,9.778868,0.0012217296,0.0006108648,-0.0004581486,-89.25,14.175,45.2625,watch_1
26124901202892,0.15314065,-0.13040884,9.8219385,0.0012217296,0.0006108648,-0.0004581486,-88.275,13.275001,46.7625,watch_1
26124896240132,0.15314065,-0.13040884,9.8219385,0.0012217296,0.0006108648,-0.0016798781,-88.387505,13.70625,45.99375,watch_1
26124914420600,0.15314065,-0.13040884,9.8219385,0.0012217296,0.0006108648,-0.0016798781,-88.387505,13.70625,45.99375,watch_1
26124924420548,0.15314065,-0.13040884,9.8219385,0.0012217296,0.0006108648,-0.0016798781,-88.537506,13.51875,47.15625,watch_1
26124920245861,0.16749759,-0.14476576,9.8219385,0.0,-0.0030543238,-0.0004581486,-88.537506,13.51875,47.15625,watch_1
26124915283100,0.16749759,-0.14476576,9.8219385,0.0,-0.0030543238,-0.0004581486,-88.537506,13.51875,47.15625,watch_1
26124934420496,0.16749759,-0.14476576,9.8219385,0.0,-0.0030543238,-0.0004581486,-88.8375,13.968751,44.025,watch_1
26124944420444,0.16749759,-0.14476576,9.8219385,0.0,-0.0030543238,-0.0004581486,-89.90625,15.281251,42.9,watch_1
26124939319871,0.15792629,-0.17826529,9.778868,-0.0061086477,0.005497783,-0.0004581486,-89.90625,15.281251,42.9,watch_1
26124934357111,0.15792629,-0.17826529,9.778868,-0.0061086477,0.005497783,-0.0004581486,-89.15625,16.63125,43.143753,watch_1
26124954420392,0.15792629,-0.17826529,9.778868,-0.0061086477,0.005497783,-0.0004581486,-89.15625,16.63125,43.143753,watch_1
26124964420340,0.15792629,-0.17826529,9.778868,-0.0061086477,0.005497783,-0.0004581486,-90.075005,16.35,44.23125,watch_1
26124958392892,0.15314065,-0.17347965,9.802796,0.0012217296,0.0030543238,-0.0004581486,-90.075005,16.35,44.23125,watch_1
26124953430132,0.15314065,-0.17347965,9.802796,0.0012217296,0.0030543238,-0.0004581486,-90.075005,16.35,44.23125,watch_1
26124974420288,0.15314065,-0.17347965,9.802796,0.0012217296,0.0030543238,-0.0004581486,-87.5625,17.212502,45.73125,watch_1
26124984420236,0.16271193,-0.13519448,9.793225,0.0012217296,0.0030543238,-0.0004581486,-88.96875,14.400001,42.80625,watch_1
26124977466850,0.16271193,-0.13519448,9.793225,0.0,-0.007941242,-0.0004581486,-88.96875,14.400001,42.80625,watch_1
26124972504090,0.16271193,-0.13519448,9.793225,0.0,-0.007941242,-0.0004581486,-88.96875,14.400001,42.80625,watch_1
26124994420184,0.16271193,-0.13519448,9.793225,0.0,-0.007941242,-0.0004581486,-89.193756,16.35,42.881252,watch_1
26124996539871,0.16271193,-0.13040884,9.812367,0.0,-0.007941242,-0.0004581486,-88.575005,15.150001,43.800003,watch_1
26125004420132,0.16271193,-0.13040884,9.812367,0.0,-0.007941242,-0.0004581486,-88.575005,15.150001,43.800003,watch_1
26124991577111,0.16271193,-0.13040884,9.812367,0.0012217296,0.005497783,-0.0004581486,-88.575005,15.150001,43.800003,watch_1
26125014420080,0.16271193,-0.13040884,9.812367,0.0012217296,0.005497783,-0.0004581486,-87.918755,17.081251,43.537502,watch_1
26125024420027,0.16271193,-0.13040884,9.812367,0.0012217296,0.005497783,-0.0004581486,-87.918755,17.081251,43.537502,watch_1
26125015613882,0.15314065,-0.111266255,9.798011,0.0012217296,0.005497783,-0.0004581486,-87.918755,17.081251,43.537502,watch_1
26125034419975,0.15314065,-0.111266255,9.798011,0.0,-0.0006108648,-0.0004581486,-89.7375,15.431251,43.050003,watch_1
26125010651121,0.15314065,-0.111266255,9.798011,0.0,-0.0006108648,-0.0004581486,-89.7375,15.431251,43.050003,watch_1
26125029724090,0.16271193,-0.13040884,9.798011,-0.0024434591,-0.0030543238,-0.0016798781,-89.7375,15.431251,43.050003,watch_1
26125034686850,0.16271193,-0.13040884,9.798011,-0.0024434591,-0.0030543238,-0.0016798781,-89.7375,15.431251,43.050003,watch_1
26125044419923,0.16271193,-0.13040884,9.798011,-0.0024434591,-0.0030543238,-0.0016798781,-89.49375,14.887501,43.85625,watch_1
26125054419871,0.16271193,-0.13040884,9.798011,-0.0024434591,-0.0030543238,-0.0016798781,-89.043755,16.5375,41.71875,watch_1
26125053760861,0.16749759,-0.13519448,9.812367,0.0012217296,-0.0006108648,-0.0004581486,-89.043755,16.5375,41.71875,watch_1
26125048798100,0.16749759,-0.13519448,9.812367,0.0012217296,-0.0006108648,-0.0004581486,-87.5625,14.55,44.98125,watch_1
26125064419819,0.16749759,-0.13519448,9.812367,0.0012217296,-0.0006108648,-0.0004581486,-87.5625,14.55,44.98125,watch_1
26125074419767,0.16749759,-0.13519448,9.812367,0.0012217296,-0.0006108648,-0.0004581486,-88.068756,15.637501,43.95,watch_1
26125072803882,0.17228323,-0.16869399,9.812367,-0.0036651888,0.0006108648,-0.0004581486,-88.068756,15.637501,43.95,watch_1
26125067841121,0.17228323,-0.16869399,9.812367,-0.0036651888,0.0006108648,-0.0004581486,-88.068756,15.637501,43.95,watch_1
26125084419715,0.17228323,-0.16869399,9.812367,-0.0036651888,0.0006108648,-0.0004581486,-89.100006,15.95625,42.05625,watch_1
26125094419663,0.17228323,-0.16869399,9.812367,-0.0036651888,0.0006108648,-0.0004581486,-90.225006,16.518751,42.45,watch_1
26125091876850,0.15792629,-0.16869399,9.807582,0.0012217296,0.0006108648,-0.0004581486,-90.225006,16.518751,42.45,watch_1
26125104419611,0.15792629,-0.16869399,9.807582,0.0012217296,0.0006108648,-0.0004581486,-88.443756,16.44375,42.956253,watch_1
26125086914090,0.15792629,-0.16869399,9.807582,0.0012217296,0.0006108648,-0.0004581486,-88.443756,16.44375,42.956253,watch_1
26125114419559,0.15792629,-0.16869399,9.807582,0.0012217296,0.0006108648,-0.0004581486,-90.99375,15.150001,42.05625,watch_1
26125110950861,0.15314065,-0.14476576,9.783653,-0.0036651888,0.0042760535,-0.0004581486,-90.99375,15.150001,42.05625,watch_1
26125124419507,0.15314065,-0.14476576,9.783653,-0.0036651888,0.0042760535,-0.0004581486,-89.25,15.618751,43.95,watch_1
26125105988100,0.15314065,-0.14476576,9.783653,-0.0036651888,0.0042760535,-0.0004581486,-89.25,15.618751,43.95,watch_1
26125134419455,0.15314065,-0.14476576,9.783653,-0.0036651888,0.0042760535,-0.0004581486,-87.412506,14.718751,44.4,watch_1
26125130023882,0.14356937,-0.106480606,9.817153,0.0061086477,-0.0030543238,-0.0004581486,-87.412506,14.718751,44.4,watch_1
26125125061121,0.14356937,-0.106480606,9.817153,0.0061086477,-0.0030543238,-0.0004581486,-87.412506,14.718751,44.4,watch_1
26125144419402,0.14356937,-0.106480606,9.817153,0.0061086477,-0.0030543238,-0.0004581486,-88.21875,15.468751,44.081253,watch_1
26125154419350,0.14356937,-0.106480606,9.817153,0.0061086477,-0.0030543238,-0.0004581486,-88.21875,15.13125,46.162502,watch_1
26125149097892,0.15792629,-0.12562318,9.783653,-0.0048869182,-0.0067195124,-0.0004581486,-88.21875,15.13125,46.162502,watch_1
26125144135132,0.15792629,-0.12562318,9.783653,-0.0048869182,-0.0067195124,-0.0004581486,-88.21875,15.13125,46.162502,watch_1
26125164419298,0.15792629,-0.12562318,9.783653,-0.0048869182,-0.0067195124,-0.0004581486,-89.137505,16.612501,44.15625,watch_1
26125174419246,0.15792629,-0.12562318,9.783653,-0.0048869182,-0.0067195124,-0.0004581486,-89.887505,15.243751,44.2125,watch_1
26125168170861,0.13878371,-0.13040884,9.8219385,-0.0048869182,-0.0067195124,-0.0004581486,-89.887505,15.243751,44.2125,watch_1
26125163208100,0.13878371,-0.13040884,9.8219385,0.0012217296,0.0067195124,-0.0004581486,-89.887505,15.243751,44.2125,watch_1
26125184419194,0.13878371,-0.13040884,9.8219385,0.0012217296,0.0067195124,-0.0004581486,-89.381256,17.306252,43.78125,watch_1
26125182282111,0.13878371,-0.13040884,9.8219385,-0.0048869182,-0.005497783,-0.0004581486,-89.381256,17.306252,43.78125,watch_1
26125187244871,0.18185452,-0.16390835,9.788439,-0.0048869182,-0.005497783,-0.0004581486,-89.381256,17.306252,43.78125,watch_1
26125194419142,0.18185452,-0.16390835,9.788439,-0.0048869182,-0.005497783,-0.0004581486,-89.887505,15.562501,43.162502,watch_1
26125204419090,0.18185452,-0.16390835,9.788439,-0.0048869182,-0.005497783,-0.0004581486,-88.55625,16.556252,43.800003,watch_1
26125206317892,0.18185452,-0.17347965,9.788439,0.0,0.0030543238,-0.0004581486,-88.55625,16.556252,43.800003,watch_1
26125224418986,0.18185452,-0.17347965,9.788439,0.0,0.0030543238,-0.0004581486,-88.18125,17.325,43.03125,watch_1
26125234418934,0.18185452,-0.17347965,9.788439,0.0,0.0030543238,-0.0004581486,-90.46875,14.531251,41.30625,watch_1
26125220429090,0.15314065,-0.13998012,9.812367,0.0024434591,0.0030543238,-0.0004581486,-90.46875,14.531251,41.30625,watch_1
26125214419038,0.15314065,-0.13998012,9.812367,0.0024434591,0.0030543238,-0.0004581486,-90.46875,14.531251,41.30625,watch_1
26125225391850,0.15314065,-0.13998012,9.812367,0.0024434591,0.0030543238,-0.0004581486,-90.46875,14.531251,41.30625,watch_1
26125201355132,0.18185452,-0.17347965,9.788439,0.0,0.0030543238,-0.0004581486,-88.55625,16.556252,43.800003,watch_1
26125244418882,0.15314065,-0.13998012,9.812367,0.0024434591,0.0030543238,-0.0004581486,-89.3625,16.181252,43.0125,watch_1
26125244434871,0.148355,-0.13998012,9.8219385,0.0,-0.0006108648,-0.0004581486,-89.3625,16.181252,43.0125,watch_1
26125239472111,0.148355,-0.13998012,9.8219385,0.0,-0.0006108648,-0.0004581486,-89.3625,16.181252,43.0125,watch_1
26125254418830,0.148355,-0.13998012,9.8219385,0.0,-0.0006108648,-0.0004581486,-88.8,15.675,44.287502,watch_1
26125264418777,0.148355,-0.13998012,9.8219385,0.0,-0.0006108648,-0.0004581486,-91.350006,16.893751,44.025,watch_1
26125263507892,0.15792629,-0.12083755,9.812367,0.0012217296,-0.0006108648,-0.0004581486,-91.350006,16.893751,44.025,watch_1
26125274418725,0.15792629,-0.12083755,9.812367,0.0012217296,-0.0006108648,-0.0004581486,-89.26875,15.618751,43.66875,watch_1
26125258545132,0.15792629,-0.12083755,9.812367,0.0012217296,-0.0006108648,-0.0004581486,-89.26875,15.618751,43.66875,watch_1
26125284418673,0.15792629,-0.12083755,9.812367,0.0012217296,-0.0006108648,-0.0004581486,-90.4875,15.31875,43.40625,watch_1
26125277619090,0.16749759,-0.15433706,9.783653,-0.0073303776,0.0018325944,-0.0004581486,-88.725006,16.40625,43.65,watch_1
26125294418621,0.16749759,-0.15433706,9.783653,-0.0073303776,0.0018325944,-0.0004581486,-88.725006,16.40625,43.65,watch_1
26125282581850,0.16749759,-0.15433706,9.783653,-0.0073303776,0.0018325944,-0.0004581486,-88.725006,16.40625,43.65,watch_1
26125304418569,0.16749759,-0.15433706,9.783653,-0.0073303776,0.0018325944,-0.0004581486,-89.68125,15.8625,43.443752,watch_1
26125301654871,0.16749759,-0.1591227,9.812367,0.0012217296,-0.0030543238,-0.0004581486,-89.68125,15.8625,43.443752,watch_1
26125296692111,0.16749759,-0.1591227,9.812367,0.0012217296,-0.0030543238,-0.0004581486,-89.68125,15.8625,43.443752,watch_1
26125314418517,0.16749759,-0.1591227,9.812367,0.0012217296,-0.0030543238,-0.0004581486,-89.662506,16.1625,42.693752,watch_1
26125324418465,0.16749759,-0.1591227,9.812367,0.0012217296,-0.0030543238,-0.0004581486,-88.725006,14.962501,44.5125,watch_1
26125320727892,0.17706887,-0.1591227,9.769297,-0.0036651888,-0.0030543238,-0.0004581486,-88.725006,14.962501,44.5125,watch_1
26125315765132,0.17706887,-0.1591227,9.769297,-0.0036651888,-0.0030543238,-0.0004581486,-88.8375,15.712501,42.24375,watch_1
26125334418413,0.17706887,-0.1591227,9.769297,-0.0036651888,-0.0030543238,-0.0004581486,-88.8375,15.712501,42.24375,watch_1
26125344418361,0.17706887,-0.1591227,9.769297,-0.0036651888,-0.0030543238,-0.0004581486,-90.075005,16.368752,43.350002,watch_1
26125339801850,0.15314065,-0.13519448,9.817153,0.0036651888,0.0067195124,-0.0004581486,-90.075005,16.368752,43.350002,watch_1
26125334839090,0.15314065,-0.13519448,9.817153,0.0036651888,0.0067195124,-0.0004581486,-90.075005,16.368752,43.350002,watch_1
26125354418309,0.15314065,-0.13519448,9.817153,0.0036651888,0.0067195124,-0.0004581486,-90.65625,15.150001,44.1375,watch_1
26125364418257,0.15314065,-0.13519448,9.817153,0.0036651888,0.0067195124,-0.0004581486,-89.325005,15.056251,43.706253,watch_1
26125358874871,0.15792629,-0.12562318,9.807582,-0.0012217296,-0.0030543238,-0.0004581486,-89.325005,15.056251,43.706253,watch_1
26125353912111,0.15792629,-0.12562318,9.807582,-0.0012217296,-0.0030543238,-0.0004581486,-89.325005,15.056251,43.706253,watch_1
26125374418205,0.15792629,-0.12562318,9.807582,-0.0012217296,-0.0030543238,-0.0004581486,-88.8,15.675,44.006252,watch_1
26125384418152,0.15792629,-0.12562318,9.807582,-0.0012217296,-0.0030543238,-0.0004581486,-88.387505,14.962501,46.29375,watch_1
26125377948882,0.16271193,-0.14476576,9.802796,-0.0012217296,0.0018325944,-0.0004581486,-88.387505,14.962501,46.29375,watch_1
26125372986121,0.16271193,-0.14476576,9.802796,-0.0012217296,0.0018325944,-0.0004581486,-88.387505,14.962501,46.29375,watch_1
26125394418100,0.16271193,-0.14476576,9.802796,-0.0012217296,0.0018325944,-0.0004581486,-87.0,15.450001,45.693752,watch_1
26125404418048,0.16271193,-0.14476576,9.802796,-0.0012217296,0.0018325944,-0.0004581486,-89.26875,14.19375,43.95,watch_1
26125396991850,0.16271193,-0.14955142,9.802796,-0.0012217296,0.0006108648,-0.0004581486,-89.26875,14.19375,43.95,watch_1
26125392029090,0.16271193,-0.14955142,9.802796,-0.0012217296,0.0006108648,-0.0004581486,-89.26875,14.19375,43.95,watch_1
26125414417996,0.16271193,-0.14955142,9.802796,-0.0012217296,0.0006108648,-0.0004581486,-87.39375,12.0,45.693752,watch_1
26125424417944,0.16271193,-0.14955142,9.802796,-0.0012217296,0.0006108648,-0.0004581486,-87.131256,14.475,44.456253,watch_1
26125416064871,0.17706887,-0.1591227,9.788439,-0.0024434591,-0.0042760535,-0.0004581486,-87.131256,14.475,44.456253,watch_1
26125411102111,0.17706887,-0.1591227,9.788439,-0.0024434591,-0.0042760535,-0.0004581486,-87.131256,14.475,44.456253,watch_1
26125434417892,0.17706887,-0.1591227,9.788439,-0.0024434591,-0.0042760535,-0.0004581486,-88.256256,15.168751,44.850002,watch_1
26125444417840,0.17706887,-0.1591227,9.788439,-0.0024434591,-0.0042760535,-0.0004581486,-88.33125,15.543751,45.956253,watch_1
26125435138882,0.17228323,-0.14476576,9.807582,0.0024434591,-0.0006108648,-0.0004581486,-88.33125,15.543751,45.956253,watch_1
26125430176121,0.17228323,-0.14476576,9.807582,0.0024434591,-0.0006108648,-0.0004581486,-88.33125,15.543751,45.956253,watch_1
26125454417788,0.17228323,-0.14476576,9.807582,0.0024434591,-0.0006108648,-0.0004581486,-88.89375,15.13125,42.73125,watch_1
26125454211850,0.16271193,-0.13519448,9.788439,-0.0012217296,0.0006108648,-0.0004581486,-88.89375,15.13125,42.73125,watch_1
26125449249090,0.16271193,-0.13519448,9.788439,-0.0012217296,0.0006108648,-0.0004581486,-87.225006,13.762501,44.23125,watch_1
26125464417736,0.16271193,-0.13519448,9.788439,-0.0012217296,0.0006108648,-0.0004581486,-87.225006,13.762501,44.23125,watch_1
26125474417684,0.16271193,-0.13519448,9.788439,-0.0012217296,0.0006108648,-0.0004581486,-88.6875,15.262501,44.193752,watch_1
26125468323100,0.15314065,-0.13519448,9.812367,0.0,0.0030543238,-0.0004581486,-87.825005,14.775001,45.225002,watch_1
26125484417632,0.15314065,-0.13519448,9.812367,0.0,0.0030543238,-0.0004581486,-87.825005,14.775001,45.225002,watch_1
26125473285861,0.15314065,-0.13519448,9.812367,0.0,0.0030543238,-0.0004581486,-87.825005,14.775001,45.225002,watch_1
26125504417527,0.15314065,-0.13519448,9.812367,-0.0012217296,-0.0006108648,-0.0004581486,-87.693756,13.556251,44.34375,watch_1
26125494417580,0.15314065,-0.13519448,9.812367,-0.0012217296,-0.0006108648,-0.0004581486,-87.693756,13.556251,44.34375,watch_1
26125492358882,0.16271193,-0.13519448,9.802796,-0.0012217296,-0.0006108648,-0.0004581486,-87.693756,13.556251,44.34375,watch_1
26125487396121,0.15314065,-0.13519448,9.812367,-0.0012217296,-0.0006108648,-0.0004581486,-87.693756,13.556251,44.34375,watch_1
26125514417475,0.16271193,-0.13519448,9.802796,-0.0012217296,-0.0006108648,-0.0004581486,-89.325005,13.44375,45.61875,watch_1
26125506470132,0.16271193,-0.16390835,9.807582,-0.0024434591,0.0006108648,-0.0004581486,-89.325005,13.44375,45.61875,watch_1
26125524417423,0.16271193,-0.16390835,9.807582,-0.0024434591,0.0006108648,-0.0004581486,-88.5,14.2875,44.60625,watch_1
26125511432892,0.16271193,-0.16390835,9.807582,-0.0024434591,0.0006108648,-0.0004581486,-88.5,14.2875,44.60625,watch_1
26125534417371,0.16271193,-0.16390835,9.807582,-0.0024434591,0.0006108648,-0.0004581486,-88.74375,14.512501,46.0125,watch_1
26125525543100,0.16271193,-0.16390835,9.807582,0.0,-0.0006108648,-0.0004581486,-88.74375,14.512501,46.0125,watch_1
26125530505861,0.16271193,-0.16390835,9.807582,0.0,-0.0006108648,-0.0004581486,-88.74375,14.512501,46.0125,watch_1
26125544417319,0.16271193,-0.16390835,9.807582,0.0,-0.0006108648,-0.0004581486,-88.5,16.96875,45.075,watch_1
26125554417267,0.16271193,-0.16390835,9.807582,0.0,-0.0006108648,-0.0004581486,-88.3125,14.437501,45.206253,watch_1
26125544617111,0.16749759,-0.14955142,9.802796,-0.0024434591,0.0006108648,-0.0004581486,-88.3125,14.437501,45.206253,watch_1
26125549579871,0.16749759,-0.14955142,9.802796,-0.0024434591,0.0006108648,-0.0004581486,-88.3125,14.437501,45.206253,watch_1
26125564417215,0.16749759,-0.14955142,9.802796,-0.0024434591,0.0006108648,-0.0004581486,-90.24375,15.093751,42.73125,watch_1
26125574417163,0.16749759,-0.14955142,9.802796,-0.0024434591,0.0006108648,-0.0004581486,-89.287506,13.89375,44.550003,watch_1
26125563660132,0.15792629,-0.13519448,9.807582,0.0012217296,0.0018325944,-0.0004581486,-89.287506,13.89375,44.550003,watch_1
26125568622892,0.15792629,-0.13519448,9.807582,0.0012217296,0.0018325944,-0.0004581486,-89.287506,13.89375,44.550003,watch_1
26125584417111,0.15792629,-0.13519448,9.807582,0.0012217296,0.0018325944,-0.0004581486,-90.412506,14.45625,44.662502,watch_1
26125594417059,0.15792629,-0.13519448,9.807582,0.0012217296,0.0018325944,-0.0004581486,-88.74375,13.406251,44.9625,watch_1
26125587695861,0.16749759,-0.13040884,9.802796,0.0012217296,0.0018325944,-0.0004581486,-88.74375,13.406251,44.9625,watch_1
26125582733100,0.16749759,-0.13040884,9.802796,0.0,-0.0042760535,-0.0004581486,-88.74375,13.406251,44.9625,watch_1
26125604417007,0.16749759,-0.13040884,9.802796,0.0,-0.0042760535,-0.0004581486,-88.8,13.931251,46.068752,watch_1
26125614416955,0.16749759,-0.13040884,9.802796,0.0,-0.0042760535,-0.0004581486,-89.15625,15.20625,44.15625,watch_1
26125601807111,0.16271193,-0.13040884,9.802796,-0.0012217296,0.0018325944,-0.0004581486,-89.15625,15.20625,44.15625,watch_1
26125606769871,0.16271193,-0.13040884,9.802796,-0.0012217296,0.0018325944,-0.0004581486,-89.15625,15.20625,44.15625,watch_1
26125624416902,0.16271193,-0.13040884,9.802796,-0.0012217296,0.0018325944,-0.0004581486,-87.168755,14.19375,43.893753,watch_1
26125634416850,0.16271193,-0.13040884,9.802796,-0.0012217296,0.0018325944,-0.0004581486,-88.818756,13.950001,45.3375,watch_1
26125625842892,0.16271193,-0.1591227,9.798011,-0.0012217296,0.0018325944,-0.0004581486,-88.818756,13.950001,45.3375,watch_1
26125620880132,0.16271193,-0.1591227,9.798011,-0.0012217296,0.0018325944,-0.0004581486,-88.818756,13.950001,45.3375,watch_1
26125644416798,0.16271193,-0.1591227,9.798011,-0.0012217296,0.0018325944,-0.0004581486,-88.537506,15.1125,45.84375,watch_1
26125644916850,0.16749759,-0.15433706,9.798011,0.0,-0.0030543238,-0.0004581486,-88.537506,14.00625,44.643753,watch_1
26125639954090,0.16749759,-0.15433706,9.798011,0.0,-0.0030543238,-0.0004581486,-88.537506,14.00625,44.643753,watch_1
26125654416746,0.16749759,-0.15433706,9.798011,0.0,-0.0030543238,-0.0004581486,-88.537506,14.00625,44.643753,watch_1
26125664416694,0.16749759,-0.15433706,9.798011,0.0,-0.0030543238,-0.0004581486,-88.875,13.51875,45.075,watch_1
26125674416642,0.15314065,-0.14955142,9.793225,0.0,0.0018325944,0.00076358096,-88.631256,15.993751,43.55625,watch_1
26125659027111,0.15314065,-0.14955142,9.793225,0.0,0.0018325944,0.00076358096,-88.631256,15.993751,43.55625,watch_1
26125663989871,0.15314065,-0.14955142,9.793225,0.0,0.0018325944,0.00076358096,-88.631256,15.993751,43.55625,watch_1
26125684416590,0.15314065,-0.14955142,9.793225,0.0,0.0018325944,0.00076358096,-88.575005,13.575001,44.68125,watch_1
26125683063882,0.148355,-0.13998012,9.807582,0.0,0.0030543238,-0.0004581486,-88.575005,13.575001,44.68125,watch_1
26125678101121,0.148355,-0.13998012,9.807582,0.0,0.0030543238,-0.0004581486,-88.575005,13.575001,44.68125,watch_1
26125694416538,0.148355,-0.13998012,9.807582,0.0,0.0030543238,-0.0004581486,-88.05,16.10625,41.86875,watch_1
26125704416486,0.148355,-0.13998012,9.807582,0.0,0.0030543238,-0.0004581486,-88.89375,15.13125,42.73125,watch_1
26125714416434,0.148355,-0.13998012,9.807582,0.0,-0.0018325944,-0.0004581486,-87.05625,19.29375,43.85625,watch_1
26125697174090,0.148355,-0.13998012,9.807582,0.0,-0.0018325944,-0.0004581486,-87.05625,19.29375,43.85625,watch_1
26125702136850,0.15792629,-0.14955142,9.807582,0.0,-0.0018325944,-0.0004581486,-87.05625,19.29375,43.85625,watch_1
26125724416382,0.15792629,-0.14955142,9.807582,0.0,-0.0018325944,-0.0004581486,-87.225006,13.44375,45.862503,watch_1
26125721179871,0.15314065,-0.13998012,9.788439,-0.0012217296,0.0006108648,-0.0004581486,-87.225006,13.44375,45.862503,watch_1
26125716217111,0.15314065,-0.13998012,9.788439,-0.0012217296,0.0006108648,-0.0004581486,-87.225006,13.44375,45.862503,watch_1
26125734416330,0.15314065,-0.13998012,9.788439,-0.0012217296,0.0006108648,-0.0004581486,-87.84375,12.562501,49.65,watch_1
26125744416277,0.15314065,-0.13998012,9.788439,-0.0012217296,0.0006108648,-0.0004581486,-88.012505,11.606251,46.96875,watch_1
26125740253882,0.17228323,-0.14476576,9.802796,0.0,0.0006108648,-0.0004581486,-88.012505,11.606251,46.96875,watch_1
26125735291121,0.17228323,-0.14476576,9.802796,0.0,0.0006108648,-0.0004581486,-88.012505,11.606251,46.96875,watch_1
26125754416225,0.17228323,-0.14476576,9.802796,0.0,0.0006108648,-0.0004581486,-87.4875,12.243751,46.818752,watch_1
26125764416173,0.17228323,-0.14476576,9.802796,0.0,0.0006108648,-0.0004581486,-88.36875,13.687501,46.575,watch_1
26125754364090,0.17706887,-0.1591227,9.802796,0.0,-0.0042760535,-0.0004581486,-88.36875,13.687501,46.575,watch_1
26125759326850,0.17706887,-0.1591227,9.802796,0.0,-0.0042760535,-0.0004581486,-88.36875,13.687501,46.575,watch_1
26125774416121,0.17706887,-0.1591227,9.802796,0.0,-0.0042760535,-0.0004581486,-88.818756,15.375001,44.756252,watch_1
26125784416069,0.17706887,-0.1591227,9.802796,0.0,-0.0042760535,-0.0004581486,-87.84375,13.387501,44.775,watch_1
26125778400861,0.15792629,-0.15433706,9.783653,-0.0012217296,0.0006108648,-0.0004581486,-87.84375,13.387501,44.775,watch_1
26125773438100,0.15792629,-0.15433706,9.783653,-0.0012217296,0.0006108648,-0.0004581486,-87.84375,13.387501,44.775,watch_1
26125794416017,0.15792629,-0.15433706,9.783653,-0.0012217296,0.0006108648,-0.0004581486,-88.425,14.531251,47.0625,watch_1
26125804415965,0.15792629,-0.15433706,9.783653,-0.0012217296,0.0006108648,-0.0004581486,-86.71875,14.231251,44.53125,watch_1
26125797473882,0.15792629,-0.13998012,9.812367,0.0,0.0042760535,-0.0004581486,-86.71875,14.231251,44.53125,watch_1
26125792511121,0.15792629,-0.13998012,9.812367,0.0,0.0042760535,-0.0004581486,-86.71875,14.231251,44.53125,watch_1
26125814415913,0.15792629,-0.13998012,9.812367,0.0,0.0042760535,-0.0004581486,-86.981255,12.88125,46.518753,watch_1
26125824415861,0.15792629,-0.13998012,9.812367,0.0,-0.0006108648,-0.0004581486,-90.15,12.450001,47.2125,watch_1
26125811585132,0.15792629,-0.13998012,9.812367,0.0,-0.0006108648,-0.0004581486,-90.15,12.450001,47.2125,watch_1
26125816547892,0.16271193,-0.13519448,9.802796,0.0,-0.0006108648,-0.0004581486,-90.15,12.450001,47.2125,watch_1
26125834415809,0.16271193,-0.13519448,9.802796,0.0,-0.0006108648,-0.0004581486,-89.26875,13.875001,46.0125,watch_1
26125844415757,0.16271193,-0.13519448,9.802796,0.0,-0.0006108648,-0.0004581486,-87.975006,13.500001,45.3375,watch_1
26125835620861,0.15314065,-0.15433706,9.788439,-0.0012217296,0.0018325944,-0.0004581486,-87.975006,13.500001,45.3375,watch_1
26125830658100,0.15314065,-0.15433706,9.788439,-0.0012217296,0.0018325944,-0.0004581486,-87.975006,13.500001,45.3375,watch_1
26125854415705,0.15314065,-0.15433706,9.788439,-0.0012217296,0.0018325944,-0.0004581486,-87.787506,13.63125,46.800003,watch_1
26125854694871,0.14356937,-0.14476576,9.802796,-0.0012217296,0.0018325944,-0.0004581486,-87.787506,13.63125,46.800003,watch_1
26125849732111,0.14356937,-0.14476576,9.802796,-0.0012217296,0.0018325944,-0.0004581486,-87.5625,13.425,44.23125,watch_1
26125864415652,0.14356937,-0.14476576,9.802796,-0.0012217296,0.0018325944,-0.0004581486,-87.5625,13.425,44.23125,watch_1
26125874415600,0.14356937,-0.14476576,9.802796,-0.0012217296,0.0018325944,-0.0004581486,-88.9875,14.1,43.40625,watch_1
26125868805132,0.16271193,-0.14476576,9.793225,0.0,-0.005497783,-0.0004581486,-89.700005,14.2875,44.04375,watch_1
26125884415548,0.16271193,-0.14476576,9.793225,0.0,-0.005497783,-0.0004581486,-89.700005,14.2875,44.04375,watch_1
26125873767892,0.16271193,-0.14476576,9.793225,0.0,-0.005497783,-0.0004581486,-89.700005,15.450001,42.46875,watch_1
26125894415496,0.16271193,-0.14476576,9.793225,0.0,-0.005497783,-0.0004581486,-89.756256,15.450001,42.46875,watch_1
26125892810861,0.16271193,-0.13998012,9.807582,0.0,-0.0006108648,-0.0004581486,-89.756256,15.450001,42.46875,watch_1
26125887848100,0.16271193,-0.13998012,9.807582,0.0,-0.0006108648,-0.0004581486,-89.756256,15.450001,42.46875,watch_1
26125904415444,0.16271193,-0.13998012,9.807582,0.0,-0.0006108648,-0.0004581486,-90.01875,14.26875,42.975002,watch_1
26125914415392,0.16271193,-0.13998012,9.807582,0.0,-0.0006108648,-0.0004581486,-90.01875,14.26875,42.975002,watch_1
26125911883882,0.16749759,-0.13998012,9.798011,0.0,-0.0006108648,-0.0004581486,-90.01875,14.26875,42.975002,watch_1
26125924415340,0.16749759,-0.13998012,9.798011,0.0,0.0018325944,-0.0004581486,-89.83125,14.400001,44.8875,watch_1
26125906921121,0.16749759,-0.13998012,9.798011,0.0,0.0018325944,-0.0004581486,-89.83125,14.400001,44.8875,watch_1
26125934415288,0.16749759,-0.13998012,9.798011,0.0,0.0018325944,-0.0004581486,-88.89375,14.325001,46.893753,watch_1
26125930957892,0.15792629,-0.1591227,9.802796,-0.0012217296,0.0006108648,-0.0016798781,-88.89375,14.325001,46.893753,watch_1
26125925995132,0.15792629,-0.1591227,9.802796,-0.0012217296,0.0006108648,-0.0016798781,-88.89375,14.325001,46.893753,watch_1
26125944415236,0.15792629,-0.1591227,9.802796,-0.0012217296,0.0006108648,-0.0016798781,-90.3,14.3625,43.818752,watch_1
26125954415184,0.15792629,-0.1591227,9.802796,-0.0012217296,0.0006108648,-0.0016798781,-88.068756,15.637501,43.65,watch_1
26125950030861,0.15792629,-0.14476576,9.807582,0.0,0.0018325944,-0.0004581486,-88.068756,15.637501,43.65,watch_1
26125945068100,0.15792629,-0.14476576,9.807582,0.0,0.0018325944,-0.0004581486,-88.068756,15.637501,43.65,watch_1
26125964415132,0.15792629,-0.14476576,9.807582,0.0,0.0018325944,-0.0004581486,-89.45625,14.062501,42.787502,watch_1
26125974415080,0.15792629,-0.14476576,9.807582,0.0,0.0018325944,-0.0004581486,-87.787506,15.225,44.8875,watch_1
26125969104871,0.14356937,-0.14955142,9.793225,-0.0024434591,0.0018325944,-0.0004581486,-87.787506,15.225,44.8875,watch_1
26125964142111,0.14356937,-0.14955142,9.793225,-0.0024434591,0.0018325944,-0.0004581486,-87.787506,15.225,44.8875,watch_1
26125984415027,0.14356937,-0.14955142,9.793225,-0.0024434591,0.0018325944,-0.0004581486,-86.568756,12.525001,46.0125,watch_1
26125994414975,0.14356937,-0.14955142,9.793225,-0.0024434591,0.0018325944,-0.0004581486,-88.36875,15.281251,45.2625,watch_1
26125988177892,0.15314065,-0.14955142,9.793225,0.0012217296,-0.0018325944,-0.0004581486,-88.36875,15.281251,45.2625,watch_1
26125983215132,0.15314065,-0.14955142,9.793225,0.0012217296,-0.0018325944,-0.0004581486,-88.36875,15.281251,45.2625,watch_1
26126004414923,0.15314065,-0.14955142,9.793225,0.0012217296,-0.0018325944,-0.0004581486,-89.381256,14.306251,44.79375,watch_1
26126014414871,0.15314065,-0.14955142,9.793225,0.0012217296,-0.0018325944,-0.0004581486,-88.40625,15.31875,43.65,watch_1
26126007251850,0.17228323,-0.12083755,9.798011,0.0012217296,-0.0018325944,-0.0004581486,-88.40625,15.31875,43.65,watch_1
26126002289090,0.17228323,-0.12083755,9.798011,0.0,-0.0042760535,-0.0004581486,-88.912506,14.6625,44.381252,watch_1
26126024414819,0.17228323,-0.12083755,9.798011,0.0,-0.0042760535,-0.0004581486,-88.912506,14.6625,44.381252,watch_1
26126034414767,0.17228323,-0.12083755,9.798011,0.0,-0.0042760535,-0.0004581486,-89.11875,15.168751,45.9,watch_1
26126021362111,0.17228323,-0.12083755,9.798011,0.0,0.0018325944,-0.0004581486,-89.11875,15.168751,45.9,watch_1
26126026324871,0.16749759,-0.14476576,9.788439,0.0,0.0018325944,-0.0004581486,-89.11875,15.168751,45.9,watch_1
26126044414715,0.16749759,-0.14476576,9.788439,0.0,0.0018325944,-0.0004581486,-87.5625,14.531251,45.28125,watch_1
26126054414663,0.16749759,-0.14476576,9.788439,0.0,0.0018325944,-0.0004581486,-87.675,15.1125,43.74375,watch_1
26126040405132,0.15314065,-0.14955142,9.798011,-0.0012217296,0.0030543238,-0.0004581486,-87.675,15.1125,43.74375,watch_1
26126045367892,0.15314065,-0.14955142,9.798011,-0.0012217296,0.0030543238,-0.0004581486,-87.675,15.1125,43.74375,watch_1
26126064414611,0.15314065,-0.14955142,9.798011,-0.0012217296,0.0030543238,-0.0004581486,-89.3625,17.60625,43.03125,watch_1
26126064441850,0.148355,-0.14476576,9.788439,0.0,0.0006108648,-0.0004581486,-89.3625,17.60625,43.03125,watch_1
26126059479090,0.148355,-0.14476576,9.788439,0.0,0.0006108648,-0.0004581486,-89.3625,17.60625,43.03125,watch_1
26126074414559,0.148355,-0.14476576,9.788439,0.0,0.0006108648,-0.0004581486,-88.6125,15.975,44.1375,watch_1
26126084414507,0.148355,-0.14476576,9.788439,0.0,0.0006108648,-0.0004581486,-88.6125,15.975,44.1375,watch_1
26126083514871,0.148355,-0.15433706,9.798011,0.0,0.0006108648,-0.0004581486,-88.6125,15.975,44.1375,watch_1
26126078552111,0.148355,-0.15433706,9.798011,0.0,0.0018325944,-0.0004581486,-88.3125,16.35,42.112503,watch_1
26126094414455,0.148355,-0.15433706,9.798011,0.0,0.0018325944,-0.0004581486,-88.3125,16.35,42.112503,watch_1
26126104414402,0.148355,-0.15433706,9.798011,0.0,0.0018325944,-0.0004581486,-89.90625,15.281251,42.9,watch_1
26126097626121,0.148355,-0.13519448,9.788439,-0.0012217296,0.0006108648,-0.0004581486,-89.90625,15.281251,42.9,watch_1
26126102588882,0.148355,-0.13519448,9.788439,-0.0012217296,0.0006108648,-0.0004581486,-89.90625,15.281251,42.9,watch_1
26126114414350,0.148355,-0.13519448,9.788439,-0.0012217296,0.0006108648,-0.0004581486,-89.325005,13.44375,45.61875,watch_1
26126124414298,0.148355,-0.13519448,9.788439,-0.0012217296,0.0006108648,-0.0004581486,-88.89375,13.556251,43.7625,watch_1
26126121661850,0.16271193,-0.13519448,9.802796,0.0012217296,-0.0030543238,-0.0004581486,-88.89375,13.556251,43.7625,watch_1
26126134414246,0.16271193,-0.13519448,9.802796,0.0012217296,-0.0030543238,-0.0004581486,-89.100006,15.95625,42.487503,watch_1
26126116699090,0.16271193,-0.13519448,9.802796,0.0012217296,-0.0030543238,-0.0004581486,-89.100006,15.95625,42.487503,watch_1
26126144414194,0.16271193,-0.13519448,9.802796,0.0012217296,-0.0030543238,-0.0004581486,-89.8125,14.868751,42.80625,watch_1
26126140735861,0.18185452,-0.14955142,9.798011,-0.0012217296,-0.0018325944,-0.0004581486,-89.8125,14.868751,42.80625,watch_1
26126135773100,0.18185452,-0.14955142,9.798011,-0.0012217296,-0.0018325944,-0.0004581486,-88.537506,15.431251,43.7625,watch_1
26126154414142,0.18185452,-0.14955142,9.798011,-0.0012217296,-0.0018325944,-0.0004581486,-88.537506,15.431251,43.7625,watch_1
26126164414090,0.18185452,-0.14955142,9.798011,-0.0012217296,-0.0018325944,-0.0004581486,-90.20625,15.39375,42.412502,watch_1
26126159808882,0.16749759,-0.14955142,9.783653,-0.0012217296,0.0030543238,-0.0004581486,-90.20625,15.39375,42.412502,watch_1
26126154846121,0.16749759,-0.14955142,9.783653,-0.0012217296,0.0030543238,-0.0004581486,-90.20625,15.39375,42.412502,watch_1
26126174414038,0.16749759,-0.14955142,9.783653,-0.0012217296,0.0030543238,-0.0004581486,-87.693756,16.556252,42.300003,watch_1
26126184413986,0.16749759,-0.14955142,9.783653,-0.0012217296,0.0030543238,-0.0004581486,-90.28125,16.237501,41.737503,watch_1
26126178882892,0.16749759,-0.15433706,9.802796,0.0,0.0006108648,-0.0004581486,-90.28125,16.237501,41.737503,watch_1
26126173920132,0.16749759,-0.15433706,9.802796,0.0,0.0006108648,-0.0004581486,-90.28125,16.237501,41.737503,watch_1
26126194413934,0.16749759,-0.15433706,9.802796,0.0,0.0006108648,-0.0004581486,-87.8625,17.6625,42.46875,watch_1
26126204413882,0.16749759,-0.15433706,9.802796,0.0,0.0006108648,-0.0004581486,-87.58125,16.143751,42.9375,watch_1
26126197955861,0.15314065,-0.14955142,9.802796,-0.0012217296,0.0018325944,-0.0004581486,-87.58125,16.143751,42.9375,watch_1
26126192993100,0.15314065,-0.14955142,9.802796,-0.0012217296,0.0018325944,-0.0004581486,-87.58125,16.143751,42.9375,watch_1
26126214413830,0.15314065,-0.14955142,9.802796,-0.0012217296,0.0018325944,-0.0004581486,-88.14375,16.5,42.693752,watch_1
26126224413777,0.15314065,-0.14955142,9.802796,-0.0012217296,0.0018325944,-0.0004581486,-89.231255,14.475,44.5125,watch_1
26126216998882,0.148355,-0.13519448,9.802796,-0.0012217296,0.0018325944,-0.0004581486,-89.231255,14.475,44.5125,watch_1
26126212036121,0.148355,-0.13519448,9.802796,0.0,0.0030543238,-0.0004581486,-89.231255,14.475,44.5125,watch_1
26126234413725,0.148355,-0.13519448,9.802796,0.0,0.0030543238,-0.0004581486,-87.80625,15.243751,43.875,watch_1
26126244413673,0.148355,-0.13519448,9.802796,0.0,0.0030543238,-0.0004581486,-89.8125,16.275002,42.525,watch_1
26126236072892,0.15792629,-0.14955142,9.793225,-0.0012217296,-0.0030543238,-0.0004581486,-89.8125,16.275002,42.525,watch_1
26126231110132,0.15792629,-0.14955142,9.793225,-0.0012217296,-0.0030543238,-0.0004581486,-89.8125,16.275002,42.525,watch_1
26126254413621,0.15792629,-0.14955142,9.793225,-0.0012217296,-0.0030543238,-0.0004581486,-88.3125,16.331251,42.825,watch_1
26126255145861,0.17228323,-0.14955142,9.788439,-0.0012217296,-0.0030543238,-0.0004581486,-89.49375,16.3125,43.143753,watch_1
26126264413569,0.17228323,-0.14955142,9.788439,-0.0012217296,-0.0030543238,-0.0004581486,-89.49375,16.3125,43.143753,watch_1
26126250183100,0.17228323,-0.14955142,9.788439,0.0,-0.0030543238,-0.0016798781,-89.49375,16.3125,43.143753,watch_1
26126274413517,0.17228323,-0.14955142,9.788439,0.0,-0.0030543238,-0.0016798781,-90.131256,16.10625,42.35625,watch_1
26126274219871,0.16749759,-0.14476576,9.798011,0.0,-0.0030543238,-0.0016798781,-90.131256,16.10625,42.35625,watch_1
26126269257111,0.16749759,-0.14476576,9.798011,0.0012217296,-0.0006108648,-0.0004581486,-90.131256,16.10625,42.35625,watch_1
26126284413465,0.16749759,-0.14476576,9.798011,0.0012217296,-0.0006108648,-0.0004581486,-89.71875,14.306251,43.0125,watch_1
26126294413413,0.16749759,-0.14476576,9.798011,0.0012217296,-0.0006108648,-0.0004581486,-89.418755,17.025002,43.068752,watch_1
26126293292892,0.16271193,-0.14476576,9.807582,0.0012217296,-0.0006108648,-0.0004581486,-89.418755,17.025002,43.068752,watch_1
26126288330132,0.16271193,-0.14476576,9.807582,0.0,0.0006108648,-0.0004581486,-89.100006,15.468751,44.86875,watch_1
26126304413361,0.16271193,-0.14476576,9.807582,0.0,0.0006108648,-0.0004581486,-89.100006,15.468751,44.86875,watch_1
26126314413309,0.16271193,-0.14476576,9.807582,0.0,0.0006108648,-0.0004581486,-89.30625,16.44375,44.30625,watch_1
26126312366850,0.15792629,-0.13519448,9.793225,0.0,0.0006108648,-0.0004581486,-89.30625,16.44375,44.30625,watch_1
26126307404090,0.15792629,-0.13519448,9.793225,0.0012217296,0.0006108648,-0.0004581486,-89.30625,16.44375,44.30625,watch_1
26126324413257,0.15792629,-0.13519448,9.793225,0.0012217296,0.0006108648,-0.0004581486,-89.193756,16.368752,42.581253,watch_1
26126334413205,0.15314065,-0.12083755,9.798011,0.0012217296,0.0006108648,-0.0004581486,-89.850006,16.0125,42.112503,watch_1
26126331439871,0.15314065,-0.12083755,9.798011,0.0012217296,0.0006108648,-0.0004581486,-89.850006,16.0125,42.112503,watch_1
26126326477111,0.15314065,-0.12083755,9.798011,-0.0012217296,0.0018325944,-0.0004581486,-89.850006,16.0125,42.112503,watch_1
26126344413152,0.15314065,-0.12083755,9.798011,-0.0012217296,0.0018325944,-0.0004581486,-88.387505,15.618751,42.9,watch_1
26126354413100,0.15314065,-0.12083755,9.798011,-0.0012217296,0.0018325944,-0.0004581486,-89.981255,17.38125,42.825,watch_1
26126350513882,0.15314065,-0.13998012,9.807582,-0.0012217296,0.0018325944,-0.0004581486,-89.981255,17.38125,42.825,watch_1
26126364413048,0.15314065,-0.13998012,9.807582,-0.0012217296,0.0042760535,-0.0004581486,-89.0625,16.237501,42.75,watch_1
26126345551121,0.15314065,-0.13998012,9.807582,-0.0012217296,0.0042760535,-0.0004581486,-89.0625,16.237501,42.75,watch_1
26126374412996,0.15314065,-0.13998012,9.807582,-0.0012217296,0.0042760535,-0.0004581486,-90.262505,14.793751,43.48125,watch_1
26126369586850,0.15792629,-0.14476576,9.802796,-0.0012217296,0.0042760535,-0.0004581486,-90.262505,14.793751,43.48125,watch_1
26126364624090,0.15792629,-0.14476576,9.802796,-0.0012217296,-0.0018325944,-0.0004581486,-90.262505,14.793751,43.48125,watch_1
26126384412944,0.15792629,-0.14476576,9.802796,-0.0012217296,-0.0018325944,-0.0004581486,-88.55625,15.13125,44.081253,watch_1
26126394412892,0.15792629,-0.14476576,9.802796,-0.0012217296,-0.0018325944,-0.0004581486,-88.55625,15.13125,44.081253,watch_1
26126383667111,0.17228323,-0.13998012,9.783653,-0.0024434591,-0.0018325944,-0.0004581486,-88.55625,15.13125,44.081253,watch_1
26126388629871,0.17228323,-0.13998012,9.783653,-0.0024434591,-0.0018325944,-0.0004581486,-88.55625,15.13125,44.081253,watch_1
26126404412840,0.17228323,-0.13998012,9.783653,-0.0024434591,-0.0018325944,-0.0004581486,-89.34375,15.075001,42.693752,watch_1
26126414412788,0.17228323,-0.13998012,9.783653,-0.0024434591,-0.0018325944,-0.0004581486,-89.0625,16.237501,42.46875,watch_1
26126407703882,0.16749759,-0.13998012,9.812367,-0.0012217296,0.0030543238,-0.0004581486,-89.0625,16.237501,42.46875,watch_1
26126402741121,0.16749759,-0.13998012,9.812367,-0.0012217296,0.0030543238,-0.0004581486,-89.0625,16.237501,42.46875,watch_1
26126424412736,0.16749759,-0.13998012,9.812367,-0.0012217296,0.0030543238,-0.0004581486,-89.45625,16.59375,43.55625,watch_1
26126434412684,0.16749759,-0.13998012,9.812367,-0.0012217296,0.0030543238,-0.0004581486,-88.631256,14.7375,43.10625,watch_1
26126426776850,0.16271193,-0.13998012,9.798011,-0.0012217296,0.0030543238,-0.0004581486,-88.631256,14.7375,43.10625,watch_1
26126421814090,0.16271193,-0.13998012,9.798011,-0.0012217296,-0.0018325944,-0.0004581486,-88.631256,14.7375,43.10625,watch_1
26126444412632,0.16271193,-0.13998012,9.798011,-0.0012217296,-0.0018325944,-0.0004581486,-88.0875,15.337501,44.268753,watch_1
26126440888100,0.16749759,-0.13998012,9.798011,-0.0012217296,0.0006108648,-0.0004581486,-89.193756,16.368752,42.581253,watch_1
26126445850861,0.16749759,-0.13998012,9.798011,-0.0012217296,0.0006108648,-0.0004581486,-88.875,15.093751,44.04375,watch_1
26126464412527,0.16749759,-0.13998012,9.798011,-0.0012217296,0.0006108648,-0.0004581486,-88.875,15.093751,44.04375,watch_1
26126454412580,0.16271193,-0.13998012,9.798011,-0.0012217296,0.0006108648,-0.0004581486,-89.193756,16.368752,42.581253,watch_1
26126474412475,0.16749759,-0.13998012,9.798011,-0.0012217296,0.0006108648,-0.0004581486,-88.875,15.093751,44.04375,watch_1
26126464923882,0.15792629,-0.14476576,9.802796,-0.0012217296,0.0030543238,-0.0004581486,-88.875,15.093751,44.04375,watch_1
26126459961121,0.15792629,-0.14476576,9.802796,-0.0012217296,0.0030543238,-0.0004581486,-88.875,15.093751,44.04375,watch_1
26126484412423,0.15792629,-0.14476576,9.802796,-0.0012217296,0.0030543238,-0.0004581486,-90.1125,16.087502,43.36875,watch_1
26126483997892,0.15314065,-0.14476576,9.798011,-0.0012217296,-0.0030543238,-0.0004581486,-90.1125,16.087502,43.36875,watch_1
26126479035132,0.15314065,-0.14476576,9.798011,-0.0012217296,-0.0030543238,-0.0004581486,-90.1125,16.087502,43.36875,watch_1
26126494412371,0.15314065,-0.14476576,9.798011,-0.0012217296,-0.0030543238,-0.0004581486,-90.1125,16.087502,43.36875,watch_1
26126504412319,0.15314065,-0.14476576,9.798011,-0.0012217296,-0.0030543238,-0.0004581486,-87.3375,16.875,43.03125,watch_1
26126503070861,0.16271193,-0.14476576,9.798011,0.0,-0.0030543238,-0.0004581486,-89.175,16.331251,44.193752,watch_1
26126498108100,0.16271193,-0.14476576,9.798011,0.0,-0.0030543238,-0.0004581486,-89.175,16.331251,44.193752,watch_1
26126514412267,0.16271193,-0.14476576,9.798011,0.0,-0.0030543238,-0.0004581486,-89.175,16.331251,44.193752,watch_1
26126524412215,0.16271193,-0.14476576,9.798011,0.0,-0.0030543238,-0.0004581486,-89.175,16.331251,44.193752,watch_1
26126522144871,0.17706887,-0.14476576,9.802796,-0.0012217296,0.0006108648,-0.0004581486,-89.175,16.331251,44.193752,watch_1
26126517182111,0.17706887,-0.14476576,9.802796,-0.0012217296,0.0006108648,-0.0004581486,-89.175,16.331251,44.193752,watch_1
26126534412163,0.17706887,-0.14476576,9.802796,-0.0012217296,0.0006108648,-0.0004581486,-87.225006,13.44375,45.5625,watch_1
26126544412111,0.17706887,-0.14476576,9.802796,-0.0012217296,0.0006108648,-0.0004581486,-87.225006,13.44375,45.5625,watch_1
26126541186850,0.16749759,-0.13998012,9.812367,-0.0012217296,0.0006108648,-0.0004581486,-87.225006,13.44375,45.5625,watch_1
26126536224090,0.16749759,-0.13998012,9.812367,0.0,-0.0006108648,-0.0004581486,-87.28125,14.26875,46.350002,watch_1
26126554412059,0.16749759,-0.13998012,9.812367,0.0,-0.0006108648,-0.0004581486,-87.28125,14.26875,46.350002,watch_1
26126564412007,0.16749759,-0.13998012,9.812367,0.0,-0.0006108648,-0.0004581486,-87.5625,12.95625,46.29375,watch_1
26126560260861,0.15314065,-0.14955142,9.798011,-0.0012217296,-0.0006108648,-0.0004581486,-87.5625,12.95625,46.29375,watch_1
26126555298100,0.15314065,-0.14955142,9.798011,-0.0012217296,-0.0006108648,-0.0004581486,-87.5625,12.95625,46.29375,watch_1
26126574411955,0.15314065,-0.14955142,9.798011,-0.0012217296,-0.0006108648,-0.0004581486,-89.287506,13.89375,44.550003,watch_1
26126584411902,0.15314065,-0.14955142,9.798011,-0.0012217296,-0.0006108648,-0.0004581486,-89.287506,13.89375,44.550003,watch_1
26126579333882,0.15314065,-0.14476576,9.802796,-0.0024434591,0.0042760535,-0.0004581486,-89.287506,13.89375,44.550003,watch_1
26126574371121,0.15314065,-0.14476576,9.802796,-0.0024434591,0.0042760535,-0.0004581486,-88.18125,14.625001,44.025,watch_1
26126594411850,0.15314065,-0.14476576,9.802796,-0.0024434591,0.0042760535,-0.0004581486,-88.18125,14.625001,44.025,watch_1
26126604411798,0.15314065,-0.14476576,9.802796,-0.0024434591,0.0042760535,-0.0004581486,-89.231255,14.475,44.2125,watch_1
26126598407892,0.15792629,-0.1591227,9.802796,-0.0012217296,0.0018325944,-0.0016798781,-89.231255,14.475,44.2125,watch_1
26126593445132,0.15792629,-0.1591227,9.802796,-0.0012217296,0.0018325944,-0.0016798781,-88.21875,15.468751,44.081253,watch_1
26126614411746,0.15792629,-0.1591227,9.802796,-0.0012217296,0.0018325944,-0.0016798781,-88.21875,15.468751,44.081253,watch_1
26126624411694,0.15792629,-0.1591227,9.802796,-0.0012217296,0.0018325944,-0.0016798781,-88.21875,15.468751,44.081253,watch_1
26126617480861,0.16749759,-0.16390835,9.788439,-0.0024434591,-0.0006108648,-0.0004581486,-88.21875,15.468751,44.081253,watch_1
26126612518100,0.16749759,-0.16390835,9.788439,-0.0024434591,-0.0006108648,-0.0004581486,-90.3,14.025001,46.18125,watch_1
26126634411642,0.16749759,-0.16390835,9.788439,-0.0024434591,-0.0006108648,-0.0004581486,-90.3,14.025001,46.18125,watch_1
26126644411590,0.16749759,-0.16390835,9.788439,-0.0024434591,-0.0006108648,-0.0004581486,-88.443756,16.44375,42.956253,watch_1
26126631592111,0.16271193,-0.13519448,9.802796,0.0,0.0030543238,-0.0004581486,-88.443756,16.44375,42.956253,watch_1
26126636554871,0.16271193,-0.13519448,9.802796,0.0,0.0030543238,-0.0004581486,-88.443756,16.44375,42.956253,watch_1
26126654411538,0.16271193,-0.13519448,9.802796,0.0,0.0030543238,-0.0004581486,-87.168755,15.6,44.193752,watch_1
26126655627892,0.15792629,-0.13040884,9.798011,0.0,0.0030543238,-0.0004581486,-89.193756,16.03125,44.643753,watch_1
26126650665132,0.15792629,-0.13040884,9.798011,-0.0012217296,-0.0006108648,-0.0004581486,-89.193756,16.03125,44.643753,watch_1
26126664411486,0.16271193,-0.13519448,9.802796,0.0,0.0030543238,-0.0004581486,-89.193756,16.03125,44.643753,watch_1
26126674411434,0.15792629,-0.13040884,9.798011,-0.0012217296,-0.0006108648,-0.0004581486,-89.231255,14.493751,43.631252,watch_1
26126669739090,0.17228323,-0.14955142,9.793225,-0.0012217296,0.0006108648,-0.0004581486,-88.51875,15.4125,44.34375,watch_1
26126674701850,0.17228323,-0.14955142,9.793225,-0.0012217296,0.0006108648,-0.0004581486,-88.51875,15.4125,44.34375,watch_1
26126684411382,0.17228323,-0.14955142,9.793225,-0.0012217296,0.0006108648,-0.0004581486,-88.51875,15.4125,44.34375,watch_1
26126694411330,0.17228323,-0.14955142,9.793225,-0.0012217296,0.0006108648,-0.0004581486,-87.15,15.900001,43.443752,watch_1
26126693774871,0.15314065,-0.13519448,9.802796,0.0,0.0006108648,-0.0004581486,-89.11875,15.4875,44.1375,watch_1
26126688812111,0.15314065,-0.13519448,9.802796,0.0,0.0006108648,-0.0004581486,-89.11875,15.4875,44.1375,watch_1
26126704411277,0.15314065,-0.13519448,9.802796,0.0,0.0006108648,-0.0004581486,-89.11875,15.4875,44.1375,watch_1
26126714411225,0.15314065,-0.13519448,9.802796,0.0,0.0006108648,-0.0004581486,-89.568756,15.262501,44.9625,watch_1
26126707855132,0.16749759,-0.14955142,9.793225,-0.0012217296,-0.0018325944,-0.0004581486,-89.25,14.175,45.2625,watch_1
26126724411173,0.16749759,-0.14955142,9.793225,-0.0012217296,-0.0018325944,-0.0004581486,-89.25,14.175,45.2625,watch_1
26126712817892,0.16749759,-0.14955142,9.793225,-0.0012217296,-0.0018325944,-0.0004581486,-89.25,14.175,45.2625,watch_1
26126734411121,0.16749759,-0.14955142,9.793225,-0.0012217296,-0.0018325944,-0.0004581486,-88.012505,16.050001,44.193752,watch_1
26126731891850,0.16749759,-0.13998012,9.802796,-0.0012217296,-0.0018325944,-0.0004581486,-88.012505,16.050001,44.193752,watch_1
26126726929090,0.16749759,-0.13998012,9.802796,0.0,-0.0006108648,-0.0004581486,-88.36875,15.281251,45.54375,watch_1
26126744411069,0.16749759,-0.13998012,9.802796,0.0,-0.0006108648,-0.0004581486,-88.36875,15.281251,45.54375,watch_1
26126754411017,0.16749759,-0.13998012,9.802796,0.0,-0.0006108648,-0.0004581486,-90.318756,14.062501,44.1375,watch_1
26126750964871,0.16271193,-0.15433706,9.798011,0.0,-0.0006108648,-0.0004581486,-90.318756,14.062501,44.1375,watch_1
26126746002111,0.16271193,-0.15433706,9.798011,0.0,-0.0006108648,-0.0004581486,-90.318756,14.062501,44.1375,watch_1
26126764410965,0.16271193,-0.15433706,9.798011,0.0,-0.0006108648,-0.0004581486,-89.381256,15.88125,44.362503,watch_1
26126774410913,0.16271193,-0.15433706,9.798011,0.0,-0.0006108648,-0.0004581486,-87.787506,15.20625,45.46875,watch_1
26126765076121,0.17228323,-0.13998012,9.793225,0.0,0.0006108648,-0.0004581486,-87.787506,15.20625,45.46875,watch_1
26126770038882,0.17228323,-0.13998012,9.793225,0.0,0.0006108648,-0.0004581486,-87.787506,15.20625,45.46875,watch_1
26126784410861,0.17228323,-0.13998012,9.793225,0.0,0.0006108648,-0.0004581486,-88.51875,13.9875,45.075,watch_1
26126794410809,0.17228323,-0.13998012,9.793225,0.0,0.0006108648,-0.0004581486,-88.387505,15.618751,42.9,watch_1
26126789111850,0.15792629,-0.14955142,9.788439,0.0,0.0006108648,-0.0004581486,-88.387505,15.618751,42.9,watch_1
26126784149090,0.15792629,-0.14955142,9.788439,-0.0012217296,0.0006108648,-0.0004581486,-88.387505,15.618751,42.9,watch_1
26126814410705,0.16749759,-0.1591227,9.798011,0.0,-0.0006108648,-0.0004581486,-87.4875,15.262501,45.206253,watch_1
26126808185861,0.16749759,-0.1591227,9.798011,0.0,-0.0006108648,-0.0004581486,-89.287506,15.31875,44.71875,watch_1
26126803223100,0.16749759,-0.1591227,9.798011,0.0,-0.0006108648,-0.0004581486,-87.4875,15.262501,45.206253,watch_1
26126827258882,0.16271193,-0.1591227,9.798011,0.0,0.0006108648,-0.0016798781,-87.4875,15.262501,45.206253,watch_1
26126844410548,0.16271193,-0.1591227,9.798011,0.0,0.0006108648,-0.0016798781,-87.8625,14.156251,47.8875,watch_1
26126834410600,0.16271193,-0.14476576,9.807582,0.0,0.0006108648,-0.0004581486,-88.293755,14.718751,45.46875,watch_1
26126822296121,0.16271193,-0.1591227,9.798011,0.0,0.0006108648,-0.0016798781,-87.4875,15.262501,47.8875,watch_1
26126824410652,0.16271193,-0.1591227,9.798011,0.0,0.0006108648,-0.0016798781,-86.71875,13.762501,46.893753,watch_1
26126854410496,0.16271193,-0.1591227,9.798011,0.0,0.0006108648,-0.0016798781,-86.71875,13.762501,46.893753,watch_1
26126804410757,0.16271193,-0.14476576,9.807582,0.0,0.0006108648,-0.0016798781,-86.71875,13.762501,46.893753,watch_1
26126846332892,0.16271193,-0.14476576,9.807582,0.0,0.0006108648,-0.0004581486,-88.293755,14.718751,45.46875,watch_1
26126864410444,0.16271193,-0.14476576,9.807582,0.0,0.0006108648,-0.0004581486,-88.293755,14.718751,45.46875,watch_1
26126841370132,0.16271193,-0.14476576,9.807582,0.0,0.0006108648,-0.0004581486,-87.075005,14.38125,48.54375,watch_1
26126874410392,0.16271193,-0.14476576,9.807582,0.0,0.0006108648,-0.0004581486,-87.075005,14.38125,48.54375,watch_1
26126865375861,0.15314065,-0.13519448,9.802796,0.0,0.0006108648,-0.0004581486,-87.075005,14.38125,48.54375,watch_1
26126860413100,0.15314065,-0.13519448,9.802796,-0.0012217296,-0.0006108648,-0.0004581486,-87.075005,14.38125,48.54375,watch_1
26126884410340,0.15314065,-0.13519448,9.802796,-0.0012217296,-0.0006108648,-0.0004581486,-86.756256,12.975,50.025,watch_1
26126884448882,0.15792629,-0.14955142,9.798011,-0.0012217296,0.0006108648,-0.0004581486,-86.756256,12.975,50.025,watch_1
26126879486121,0.15792629,-0.14955142,9.798011,-0.0012217296,0.0006108648,-0.0004581486,-89.006256,12.225,45.768753,watch_1
26126894410288,0.15792629,-0.14955142,9.798011,-0.0012217296,0.0006108648,-0.0004581486,-89.006256,12.225,45.768753,watch_1
26126904410236,0.15792629,-0.14955142,9.798011,-0.0012217296,0.0006108648,-0.0004581486,-88.275,14.700001,46.2,watch_1
26126903522892,0.16271193,-0.14955142,9.793225,-0.0012217296,0.0006108648,-0.0004581486,-88.275,14.700001,46.2,watch_1
26126898560132,0.16271193,-0.14955142,9.793225,-0.0012217296,-0.0006108648,-0.0004581486,-88.3125,14.437501,45.487503,watch_1
26126914410184,0.16271193,-0.14955142,9.793225,-0.0012217296,-0.0006108648,-0.0004581486,-88.3125,14.437501,45.487503,watch_1
26126924410132,0.16271193,-0.14955142,9.793225,-0.0012217296,-0.0006108648,-0.0004581486,-88.3125,14.437501,45.487503,watch_1
26126922595861,0.16271193,-0.14955142,9.798011,-0.0012217296,-0.0006108648,-0.0004581486,-88.3125,14.437501,45.487503,watch_1
26126917633100,0.16271193,-0.14955142,9.798011,-0.0012217296,-0.0006108648,-0.0004581486,-89.08125,13.06875,44.9625,watch_1
26126934410080,0.16271193,-0.14955142,9.798011,-0.0012217296,-0.0006108648,-0.0004581486,-89.08125,13.06875,44.9625,watch_1
26126944410027,0.16271193,-0.14955142,9.798011,-0.0012217296,-0.0006108648,-0.0004581486,-86.700005,13.743751,47.625,watch_1
26126941669871,0.15314065,-0.14955142,9.793225,0.0,0.0006108648,-0.0004581486,-86.700005,13.743751,47.625,watch_1
26126936707111,0.15314065,-0.14955142,9.793225,0.0,0.0006108648,-0.0004581486,-86.700005,13.743751,47.625,watch_1
26126954409975,0.15314065,-0.14955142,9.793225,0.0,0.0006108648,-0.0004581486,-88.51875,13.500001,47.737503,watch_1
26126964409923,0.15314065,-0.14955142,9.793225,0.0,0.0006108648,-0.0004581486,-87.356255,11.962501,47.4375,watch_1
26126960742892,0.15792629,-0.14955142,9.802796,0.0,0.0006108648,-0.0004581486,-87.356255,11.962501,47.4375,watch_1
26126955780132,0.15792629,-0.14955142,9.802796,0.0,0.0006108648,-0.0004581486,-87.356255,11.962501,47.4375,watch_1
26126974409871,0.15792629,-0.14955142,9.802796,0.0,0.0006108648,-0.0004581486,-88.2375,14.043751,44.381252,watch_1
26126984409819,0.15792629,-0.14955142,9.802796,0.0,0.0006108648,-0.0004581486,-88.2375,14.043751,44.381252,watch_1
26126979816850,0.16271193,-0.13519448,9.807582,0.0,0.0006108648,-0.0004581486,-88.2375,14.043751,44.381252,watch_1
26126974854090,0.16271193,-0.13519448,9.807582,0.0,-0.0006108648,-0.0004581486,-89.475006,15.187501,42.80625,watch_1
26126994409767,0.16271193,-0.13519448,9.807582,0.0,-0.0006108648,-0.0004581486,-89.475006,15.187501,42.80625,watch_1
26127004409715,0.16271193,-0.13519448,9.807582,0.0,-0.0006108648,-0.0004581486,-89.475006,15.187501,43.10625,watch_1
26126993927111,0.16271193,-0.13519448,9.798011,-0.0012217296,0.0006108648,-0.0004581486,-89.475006,15.187501,43.10625,watch_1
26126998889871,0.16271193,-0.13519448,9.798011,-0.0012217296,0.0006108648,-0.0004581486,-89.475006,15.187501,43.10625,watch_1
26127014409663,0.16271193,-0.13519448,9.798011,-0.0012217296,0.0006108648,-0.0004581486,-87.637505,15.731251,42.24375,watch_1
26127024409611,0.16271193,-0.13519448,9.798011,-0.0012217296,0.0006108648,-0.0004581486,-89.68125,15.843751,44.025,watch_1
26127017963882,0.16749759,-0.14476576,9.793225,0.0,-0.0006108648,-0.0016798781,-89.68125,15.843751,44.025,watch_1
26127013001121,0.16749759,-0.14476576,9.793225,0.0,-0.0006108648,-0.0016798781,-89.68125,15.843751,44.025,watch_1
26127034409559,0.16749759,-0.14476576,9.793225,0.0,-0.0006108648,-0.0016798781,-88.96875,14.400001,43.0875,watch_1
26127044409507,0.15314065,-0.13998012,9.798011,0.0,-0.0006108648,-0.0016798781,-88.6125,16.29375,42.80625,watch_1
26127037006850,0.15314065,-0.13998012,9.798011,0.0,-0.0006108648,-0.0016798781,-88.6125,16.29375,42.80625,watch_1
26127054409455,0.15314065,-0.13998012,9.798011,-0.0012217296,-0.0006108648,-0.0004581486,-89.5875,15.618751,42.16875,watch_1
26127032044090,0.15314065,-0.13998012,9.798011,-0.0012217296,-0.0006108648,-0.0004581486,-89.5875,15.618751,42.16875,watch_1
26127056079871,0.16749759,-0.14955142,9.802796,-0.0012217296,-0.0006108648,-0.0004581486,-88.70625,16.706251,42.600002,watch_1
26127064409402,0.16749759,-0.14955142,9.802796,-0.0012217296,-0.0006108648,-0.0004581486,-88.70625,16.706251,42.600002,watch_1
26127051117111,0.16749759,-0.14955142,9.802796,0.0,0.0018325944,-0.0004581486,-88.70625,16.706251,42.600002,watch_1
26127074409350,0.16749759,-0.14955142,9.802796,0.0,0.0018325944,-0.0004581486,-88.40625,16.743752,42.91875,watch_1
26127075153882,0.16271193,-0.13998012,9.798011,-0.0012217296,-0.0006108648,-0.0004581486,-87.75,15.825001,43.818752,watch_1
26127070191121,0.16271193,-0.13998012,9.798011,-0.0012217296,-0.0006108648,-0.0004581486,-87.75,15.825001,43.818752,watch_1
26127084409298,0.16271193,-0.13998012,9.798011,-0.0012217296,-0.0006108648,-0.0004581486,-87.75,15.825001,43.818752,watch_1
26127094409246,0.16271193,-0.13998012,9.798011,-0.0012217296,-0.0006108648,-0.0004581486,-88.912506,14.6625,44.081253,watch_1
26127089264090,0.15792629,-0.13998012,9.802796,-0.0012217296,-0.0006108648,-0.0004581486,-89.15625,15.20625,43.85625,watch_1
26127094226850,0.15792629,-0.13998012,9.802796,-0.0012217296,-0.0006108648,-0.0004581486,-88.912506,14.6625,44.081253,watch_1
26127104409194,0.15792629,-0.13998012,9.802796,-0.0012217296,-0.0006108648,-0.0004581486,-88.9875,17.268751,40.912502,watch_1
26127114409142,0.15792629,-0.13998012,9.802796,-0.0012217296,-0.0006108648,-0.0004581486,-88.9875,17.268751,40.912502,watch_1
26127113300861,0.17228323,-0.13519448,9.802796,-0.0012217296,0.0006108648,-0.0004581486,-88.9875,17.268751,40.912502,watch_1
26127108338100,0.17228323,-0.13519448,9.802796,-0.0012217296,0.0006108648,-0.0004581486,-88.9875,17.268751,40.912502,watch_1
26127124409090,0.17228323,-0.13519448,9.802796,-0.0012217296,0.0006108648,-0.0004581486,-89.4,14.325001,43.78125,watch_1
26127134409038,0.17228323,-0.13519448,9.802796,-0.0012217296,0.0006108648,-0.0004581486,-89.4,14.325001,43.78125,watch_1
26127132373882,0.16749759,-0.14955142,9.807582,-0.0012217296,-0.0006108648,-0.0004581486,-89.4,14.325001,43.78125,watch_1
26127127411121,0.16749759,-0.14955142,9.807582,-0.0012217296,-0.0006108648,-0.0004581486,-87.637505,15.731251,42.24375,watch_1
26127144408986,0.16749759,-0.14955142,9.807582,-0.0012217296,-0.0006108648,-0.0004581486,-87.637505,15.731251,42.24375,watch_1
26127154408934,0.16749759,-0.14955142,9.807582,-0.0012217296,-0.0006108648,-0.0004581486,-88.818756,15.375001,45.05625,watch_1
26127151446850,0.16271193,-0.13998012,9.802796,0.0,0.0006108648,-0.0004581486,-88.818756,15.375001,45.05625,watch_1
26127146484090,0.16271193,-0.13998012,9.802796,0.0,0.0006108648,-0.0004581486,-89.700005,15.8625,43.0125,watch_1
26127164408882,0.16271193,-0.13998012,9.802796,0.0,0.0006108648,-0.0004581486,-89.700005,15.8625,43.0125,watch_1
26127174408830,0.16271193,-0.13998012,9.802796,0.0,0.0006108648,-0.0004581486,-88.5,15.712501,44.04375,watch_1
26127170520861,0.15314065,-0.13998012,9.802796,0.0,0.0006108648,-0.0004581486,-88.5,15.712501,44.04375,watch_1
26127165558100,0.15314065,-0.13998012,9.802796,-0.0012217296,0.0006108648,-0.0004581486,-88.5,15.712501,44.04375,watch_1
26127184408777,0.15314065,-0.13998012,9.802796,-0.0012217296,0.0006108648,-0.0004581486,-88.200005,14.00625,46.706253,watch_1
26127194408725,0.15314065,-0.13998012,9.802796,-0.0012217296,0.0006108648,-0.0004581486,-87.131256,14.137501,46.818752,watch_1
26127184601121,0.16271193,-0.14955142,9.802796,0.0,-0.0006108648,-0.0004581486,-87.131256,14.137501,46.818752,watch_1
26127189563882,0.16271193,-0.14955142,9.802796,0.0,-0.0006108648,-0.0004581486,-87.131256,14.137501,46.818752,watch_1
26127204408673,0.16271193,-0.14955142,9.802796,0.0,-0.0006108648,-0.0004581486,-87.84375,14.475,46.55625,watch_1
26127214408621,0.16271193,-0.14955142,9.802796,0.0,-0.0006108648,-0.0004581486,-87.787506,13.63125,46.2,watch_1
26127208636850,0.15792629,-0.13998012,9.793225,-0.0012217296,0.0006108648,-0.0004581486,-87.787506,13.63125,46.2,watch_1
26127224408569,0.15792629,-0.13998012,9.793225,-0.0012217296,0.0006108648,-0.0004581486,-89.30625,13.44375,46.350002,watch_1
26127203674090,0.15792629,-0.13998012,9.793225,-0.0012217296,0.0006108648,-0.0004581486,-89.30625,13.44375,46.350002,watch_1
26127234408517,0.15792629,-0.13998012,9.793225,-0.0012217296,0.0006108648,-0.0004581486,-87.5625,14.212501,47.34375,watch_1
26127227710861,0.15792629,-0.14476576,9.807582,-0.0012217296,0.0006108648,-0.0004581486,-87.5625,14.212501,47.34375,watch_1
26127222748100,0.15792629,-0.14476576,9.807582,-0.0012217296,0.0006108648,-0.0004581486,-87.5625,14.212501,47.34375,watch_1
26127244408465,0.15792629,-0.14476576,9.807582,-0.0012217296,0.0006108648,-0.0004581486,-88.443756,13.125001,46.331253,watch_1
26127254408413,0.15792629,-0.14476576,9.807582,-0.0012217296,0.0006108648,-0.0004581486,-89.5875,15.281251,44.25,watch_1
26127241821121,0.16749759,-0.14955142,9.798011,-0.0012217296,0.0006108648,-0.0004581486,-89.5875,15.281251,44.25,watch_1
26127246783882,0.16749759,-0.14955142,9.798011,-0.0012217296,0.0006108648,-0.0004581486,-89.5875,15.281251,44.25,watch_1
26127264408361,0.16749759,-0.14955142,9.798011,-0.0012217296,0.0006108648,-0.0004581486,-87.28125,14.606251,43.987503,watch_1
26127274408309,0.16749759,-0.14955142,9.798011,-0.0012217296,0.0006108648,-0.0004581486,-87.9375,13.781251,45.600002,watch_1
26127265857892,0.16749759,-0.14476576,9.793225,0.0,0.0006108648,-0.0004581486,-87.9375,13.781251,45.600002,watch_1
26127260895132,0.16749759,-0.14476576,9.793225,0.0,0.0006108648,-0.0004581486,-87.9375,13.781251,45.600002,watch_1
26127284408257,0.16749759,-0.14476576,9.793225,0.0,0.0006108648,-0.0004581486,-88.443756,16.143751,44.287502,watch_1
26127294408205,0.16271193,-0.14476576,9.802796,0.0,0.0006108648,-0.0004581486,-88.950005,14.043751,46.18125,watch_1
26127284930861,0.16271193,-0.14476576,9.802796,0.0,0.0006108648,-0.0004581486,-88.950005,14.043751,46.18125,watch_1
26127279968100,0.16271193,-0.14476576,9.802796,0.0,0.0006108648,-0.0004581486,-88.950005,14.043751,46.18125,watch_1
26127304408152,0.16271193,-0.14476576,9.802796,0.0,0.0006108648,-0.0004581486,-88.0875,15.337501,44.268753,watch_1
26127304004871,0.16271193,-0.14476576,9.793225,0.0,0.0006108648,-0.0004581486,-88.0875,15.337501,44.268753,watch_1
26127299042111,0.16271193,-0.14476576,9.793225,0.0,0.0006108648,-0.0004581486,-87.356255,13.556251,46.40625,watch_1
26127314408100,0.16271193,-0.14476576,9.793225,0.0,0.0006108648,-0.0004581486,-87.356255,13.556251,46.40625,watch_1
26127324408048,0.16271193,-0.14476576,9.793225,0.0,0.0006108648,-0.0004581486,-89.512505,18.69375,43.631252,watch_1
26127323077892,0.16271193,-0.13998012,9.788439,-0.0012217296,-0.0006108648,-0.0004581486,-89.8125,15.975,43.85625,watch_1
26127334407996,0.16271193,-0.13998012,9.788439,-0.0012217296,-0.0006108648,-0.0004581486,-89.8125,15.975,43.85625,watch_1
26127318115132,0.16271193,-0.13998012,9.788439,-0.0012217296,-0.0006108648,-0.0004581486,-89.8125,15.975,43.85625,watch_1
26127344407944,0.16271193,-0.13998012,9.788439,-0.0012217296,-0.0006108648,-0.0004581486,-90.0,14.231251,44.30625,watch_1
26127342151850,0.17228323,-0.14476576,9.802796,-0.0012217296,-0.0006108648,-0.0004581486,-90.0,14.231251,44.30625,watch_1
26127337189090,0.17228323,-0.14476576,9.802796,-0.0012217296,-0.0006108648,-0.0016798781,-90.0,14.231251,44.30625,watch_1
26127354407892,0.17228323,-0.14476576,9.802796,-0.0012217296,-0.0006108648,-0.0016798781,-90.225006,15.075001,43.4625,watch_1
26127364407840,0.16749759,-0.15433706,9.793225,-0.0012217296,-0.0006108648,-0.0016798781,-87.4875,15.58125,43.143753,watch_1
26127361194871,0.16749759,-0.15433706,9.793225,-0.0012217296,-0.0006108648,-0.0016798781,-87.4875,15.58125,43.143753,watch_1
26127356232111,0.16749759,-0.15433706,9.793225,0.0,-0.0006108648,-0.0004581486,-87.4875,15.58125,43.143753,watch_1
26127374407788,0.16749759,-0.15433706,9.793225,0.0,-0.0006108648,-0.0004581486,-88.162506,17.306252,44.34375,watch_1
26127384407736,0.16749759,-0.15433706,9.793225,0.0,-0.0006108648,-0.0004581486,-90.450005,12.243751,48.35625,watch_1
26127380267892,0.148355,-0.14476576,9.793225,-0.0012217296,0.0006108648,-0.0004581486,-90.450005,12.243751,48.35625,watch_1
26127375305132,0.148355,-0.14476576,9.793225,-0.0012217296,0.0006108648,-0.0004581486,-90.450005,12.243751,48.35625,watch_1
26127394407684,0.148355,-0.14476576,9.793225,-0.0012217296,0.0006108648,-0.0004581486,-89.043755,11.75625,46.8375,watch_1
26127404407632,0.148355,-0.14476576,9.793225,-0.0012217296,0.0006108648,-0.0004581486,-87.168755,15.281251,46.275,watch_1
26127414407580,0.17706887,-0.13998012,9.802796,0.0,0.0006108648,-0.0004581486,-89.2125,14.475,44.943752,watch_1
26127399341850,0.17706887,-0.13998012,9.802796,0.0,0.0006108648,-0.0004581486,-89.2125,14.475,44.943752,watch_1
26127394379090,0.17706887,-0.13998012,9.802796,0.0,0.0006108648,-0.0004581486,-89.2125,14.475,44.943752,watch_1
26127424407527,0.17706887,-0.13998012,9.802796,0.0,0.0006108648,-0.0004581486,-88.350006,14.475,43.162502,watch_1
26127418414871,0.17228323,-0.14955142,9.798011,-0.0012217296,0.0006108648,-0.0004581486,-88.350006,14.475,43.162502,watch_1
26127413452111,0.17228323,-0.14955142,9.798011,-0.0012217296,0.0006108648,-0.0004581486,-88.350006,14.475,43.162502,watch_1
26127434407475,0.17228323,-0.14955142,9.798011,-0.0012217296,0.0006108648,-0.0004581486,-88.8,14.250001,44.287502,watch_1
26127444407423,0.17228323,-0.14955142,9.798011,-0.0012217296,0.0006108648,-0.0004581486,-88.856255,15.39375,43.29375,watch_1
26127432526121,0.16271193,-0.14955142,9.802796,0.0,0.0006108648,-0.0004581486,-88.856255,15.39375,43.29375,watch_1
26127437488882,0.16271193,-0.14955142,9.802796,0.0,0.0006108648,-0.0004581486,-88.856255,15.39375,43.29375,watch_1
26127454407371,0.16271193,-0.14955142,9.802796,0.0,0.0006108648,-0.0004581486,-87.65625,13.500001,46.66875,watch_1
26127464407319,0.16271193,-0.14955142,9.802796,0.0,0.0006108648,-0.0004581486,-90.318756,15.150001,45.91875,watch_1
26127456561850,0.16749759,-0.14955142,9.788439,-0.0012217296,-0.0018325944,-0.0004581486,-90.318756,15.150001,45.91875,watch_1
26127451599090,0.16749759,-0.14955142,9.788439,-0.0012217296,-0.0018325944,-0.0004581486,-90.318756,15.150001,45.91875,watch_1
26127474407267,0.16749759,-0.14955142,9.788439,-0.0012217296,-0.0018325944,-0.0004581486,-87.58125,15.656251,45.300003,watch_1
26127484407215,0.16749759,-0.14955142,9.788439,-0.0012217296,-0.0018325944,-0.0004581486,-89.71875,15.4125,44.0625,watch_1
26127470673100,0.16271193,-0.1591227,9.802796,0.0,0.0006108648,-0.0004581486,-89.71875,15.4125,44.0625,watch_1
26127475635861,0.16271193,-0.1591227,9.802796,0.0,0.0006108648,-0.0004581486,-89.71875,15.4125,44.0625,watch_1
26127494407163,0.16271193,-0.1591227,9.802796,0.0,0.0006108648,-0.0004581486,-88.818756,15.375001,44.756252,watch_1
26127504407111,0.16271193,-0.1591227,9.802796,0.0,0.0006108648,-0.0004581486,-89.55,17.15625,42.9,watch_1
26127494708882,0.16749759,-0.14955142,9.807582,-0.0012217296,0.0006108648,-0.0004581486,-89.55,17.15625,42.9,watch_1
26127489746121,0.16749759,-0.14955142,9.807582,-0.0012217296,0.0006108648,-0.0004581486,-89.55,17.15625,42.9,watch_1
26127514407059,0.16749759,-0.14955142,9.807582,-0.0012217296,0.0006108648,-0.0004581486,-89.175,15.225,42.84375,watch_1
26127513751850,0.17706887,-0.14476576,9.798011,-0.0012217296,-0.0006108648,-0.0004581486,-89.175,15.225,42.84375,watch_1
26127508789090,0.17706887,-0.14476576,9.798011,-0.0012217296,-0.0006108648,-0.0004581486,-89.175,15.225,42.84375,watch_1
26127524407007,0.17706887,-0.14476576,9.798011,-0.0012217296,-0.0006108648,-0.0004581486,-88.55625,16.556252,43.800003,watch_1
26127534406955,0.17706887,-0.14476576,9.798011,-0.0012217296,-0.0006108648,-0.0004581486,-88.03125,16.087502,42.600002,watch_1
26127532825861,0.16749759,-0.13519448,9.798011,-0.0012217296,-0.0006108648,-0.0004581486,-88.03125,16.087502,42.600002,watch_1
26127527863100,0.16749759,-0.13519448,9.798011,0.0,0.0006108648,-0.0004581486,-88.03125,16.087502,42.600002,watch_1
26127544406902,0.16749759,-0.13519448,9.798011,0.0,0.0006108648,-0.0004581486,-89.83125,14.887501,41.775,watch_1
26127554406850,0.16749759,-0.13519448,9.798011,0.0,0.0006108648,-0.0004581486,-88.950005,17.23125,42.956253,watch_1
26127551898882,0.17228323,-0.13040884,9.802796,-0.0012217296,-0.0006108648,-0.0004581486,-88.950005,17.23125,42.956253,watch_1
26127546936121,0.17228323,-0.13040884,9.802796,-0.0012217296,-0.0006108648,-0.0004581486,-88.950005,17.23125,42.956253,watch_1
26127564406798,0.17228323,-0.13040884,9.802796,-0.0012217296,-0.0006108648,-0.0004581486,-89.25,15.6,44.98125,watch_1
26127574406746,0.17228323,-0.13040884,9.802796,-0.0012217296,-0.0006108648,-0.0004581486,-87.24375,14.868751,44.550003,watch_1
26127570972892,0.16271193,-0.14476576,9.807582,0.0,0.0006108648,-0.0004581486,-87.24375,14.868751,44.550003,watch_1
26127566010132,0.16271193,-0.14476576,9.807582,0.0,0.0006108648,-0.0004581486,-87.24375,14.868751,44.550003,watch_1
26127584406694,0.16271193,-0.14476576,9.807582,0.0,0.0006108648,-0.0004581486,-88.443756,14.55,46.050003,watch_1
26127594406642,0.16271193,-0.14476576,9.807582,0.0,0.0006108648,-0.0004581486,-88.74375,15.000001,43.2,watch_1
26127590045861,0.148355,-0.14476576,9.798011,0.0,0.0006108648,-0.0004581486,-88.74375,15.000001,43.2,watch_1
26127585083100,0.148355,-0.14476576,9.798011,-0.0012217296,0.0006108648,-0.0004581486,-88.6875,15.562501,43.162502,watch_1
26127604406590,0.148355,-0.14476576,9.798011,-0.0012217296,0.0006108648,-0.0004581486,-88.6875,15.562501,43.162502,watch_1
26127614406538,0.148355,-0.14476576,9.798011,-0.0012217296,0.0006108648,-0.0004581486,-88.78125,16.125,42.65625,watch_1
26127609119871,0.15792629,-0.13998012,9.798011,-0.0012217296,0.0006108648,-0.0004581486,-88.78125,16.125,42.65625,watch_1
26127604157111,0.15792629,-0.13998012,9.798011,0.0,0.0006108648,-0.0004581486,-88.78125,16.125,42.65625,watch_1
26127624406486,0.15792629,-0.13998012,9.798011,0.0,0.0006108648,-0.0004581486,-89.26875,15.637501,42.9375,watch_1
26127634406434,0.15792629,-0.13998012,9.798011,0.0,0.0006108648,-0.0004581486,-89.625,16.425001,43.40625,watch_1
26127644406382,-0.56470615,-1.0875379,15.076577,-0.43127054,-0.56138474,0.00320704,-89.043755,16.21875,43.48125,watch_1
26127623230132,-0.56470615,-1.0875379,15.076577,-0.43127054,-0.56138474,0.00320704,-89.043755,16.21875,43.48125,watch_1
26127628192892,-0.56470615,-1.0875379,15.076577,-0.43127054,-0.56138474,0.00320704,-89.043755,16.21875,43.48125,watch_1
26127647266850,0.55513483,1.2430713,3.9690945,-0.43127054,-0.56138474,0.00320704,-90.037506,16.800001,43.3125,watch_1
26127654406330,0.55513483,1.2430713,3.9690945,-0.43127054,-0.56138474,0.00320704,-90.037506,16.800001,43.3125,watch_1
26127642304090,0.55513483,1.2430713,3.9690945,-0.6646209,1.9113959,0.07651082,-90.037506,16.800001,43.3125,watch_1
26127674406225,0.55513483,1.2430713,3.9690945,-0.6646209,1.9113959,0.07651082,-87.375,15.168751,43.350002,watch_1
26127664406277,0.55513483,1.2430713,3.9690945,-0.6646209,1.9113959,0.07651082,-87.375,15.168751,43.350002,watch_1
26127666339871,-2.0865414,-0.2644069,10.64507,0.63896453,1.070846,0.2035707,-86.53125,14.38125,45.112503,watch_1
26127694406121,-2.0865414,-0.2644069,10.64507,0.63896453,1.070846,0.2035707,-84.84375,14.400001,48.075,watch_1
26127684406173,-2.0865414,-0.2644069,10.64507,0.63896453,1.070846,0.2035707,-84.84375,14.400001,48.075,watch_1
26127661377111,0.79920274,0.1902294,10.056436,0.63896453,1.070846,0.2035707,-84.84375,14.400001,48.075,watch_1
26127685382892,0.79920274,0.1902294,10.056436,0.63896453,1.070846,0.2035707,-84.84375,14.400001,48.075,watch_1
26127680420132,0.79920274,0.1902294,10.056436,-0.5326741,-2.0066907,-0.07864884,-84.84375,14.400001,48.075,watch_1
26127704406069,0.79920274,0.1902294,10.056436,-0.5326741,-2.0066907,-0.07864884,-85.21875,14.56875,50.775,watch_1
26127704456850,0.5982057,-0.8961121,7.3429747,-0.5326741,-2.0066907,-0.07864884,-85.21875,14.56875,50.775,watch_1
26127699494090,0.5982057,-0.8961121,7.3429747,-0.34574947,-1.0329723,0.08628465,-85.21875,14.56875,50.775,watch_1
26127714406017,0.5982057,-0.8961121,7.3429747,-0.34574947,-1.0329723,0.08628465,-85.275,7.9687505,54.61875,watch_1
26127724405965,0.34456646,-0.7716853,9.295518,-0.34574947,-1.0329723,0.08628465,-87.075005,14.38125,48.54375,watch_1
26127723529871,0.34456646,-0.7716853,9.295518,1.1398736,-0.09468404,-0.028557928,-87.075005,14.38125,48.54375,watch_1
26127718567111,0.34456646,-0.7716853,9.295518,1.1398736,-0.09468404,-0.028557928,-89.0625,9.5625,49.95,watch_1
26127734405913,0.34456646,-0.7716853,9.295518,1.1398736,-0.09468404,-0.028557928,-89.08125,9.58125,49.218754,watch_1
26127744405861,0.34456646,-0.7716853,9.295518,1.1398736,-0.09468404,-0.028557928,-89.08125,9.58125,49.218754,watch_1
26127742602892,0.18664017,0.5778667,11.712269,1.2131774,0.3695732,-0.043218683,-89.08125,9.58125,49.218754,watch_1
26127754405809,0.18664017,0.5778667,11.712269,1.2131774,0.3695732,-0.043218683,-88.068756,10.875,48.05625,watch_1
26127737640132,0.18664017,0.5778667,11.712269,1.2131774,0.3695732,-0.043218683,-88.068756,10.875,48.05625,watch_1
26127764405757,0.033499517,0.23808585,9.984651,1.2131774,0.3695732,-0.043218683,-86.90625,13.293751,47.5125,watch_1
26127761676850,0.033499517,0.23808585,9.984651,1.2131774,0.3695732,-0.043218683,-87.8625,11.15625,49.65,watch_1
26127774405705,0.033499517,0.23808585,9.984651,-0.19303326,0.18264857,0.0044287695,-87.8625,11.15625,49.65,watch_1
26127756714090,0.033499517,0.23808585,9.984651,-0.19303326,0.18264857,0.0044287695,-87.8625,11.15625,49.65,watch_1
26127784405652,0.033499517,0.23808585,9.984651,-0.19303326,0.18264857,0.0044287695,-88.6875,13.33125,48.600002,watch_1
26127780749871,0.23449662,-0.26919255,9.664013,-0.19303326,0.18264857,0.0044287695,-88.6875,13.33125,48.600002,watch_1
26127775787111,0.23449662,-0.26919255,9.664013,-0.77824175,0.021380268,0.00076358096,-86.568756,13.6125,48.093754,watch_1
26127794405600,0.23449662,-0.26919255,9.664013,-0.77824175,0.021380268,0.00076358096,-86.568756,13.6125,48.093754,watch_1
26127804405548,0.2009971,-0.32662028,9.037093,-0.77824175,0.021380268,0.00076358096,-88.3125,14.418751,46.21875,watch_1
26127794861121,0.2009971,-0.32662028,9.037093,-0.2773326,0.08002329,0.016646065,-88.3125,13.425,47.081253,watch_1
26127799823882,0.2009971,-0.32662028,9.037093,-0.2773326,0.08002329,0.016646065,-89.287506,13.425,47.081253,watch_1
26127814405496,0.2009971,-0.32662028,9.037093,-0.2773326,0.08002329,0.016646065,-89.287506,13.425,47.081253,watch_1
26127824405444,0.2009971,-0.32662028,9.037093,-0.2773326,0.08002329,0.016646065,-87.09375,14.1,48.562504,watch_1
26127818896850,0.019142581,0.0035892338,9.984651,0.20525056,0.11911863,-0.0004581486,-87.09375,14.1,48.562504,watch_1
26127813934090,0.019142581,0.0035892338,9.984651,0.20525056,0.11911863,-0.0004581486,-87.09375,14.1,48.562504,watch_1
26127834405392,0.019142581,0.0035892338,9.984651,0.20525056,0.11911863,-0.0004581486,-87.43125,12.50625,47.8125,watch_1
26127844405340,0.019142581,0.0035892338,9.984651,0.20525056,0.11911863,-0.0004581486,-90.037506,16.800001,43.3125,watch_1
26127837970861,0.13878371,-0.14476576,10.003794,0.20525056,0.11911863,-0.0004581486,-90.037506,16.800001,43.3125,watch_1
26127833008100,0.13878371,-0.14476576,10.003794,0.13683371,-0.14599667,-0.021227552,-90.037506,16.800001,43.3125,watch_1
26127854405288,0.13878371,-0.14476576,10.003794,0.13683371,-0.14599667,-0.021227552,-88.162506,14.2875,46.6875,watch_1
26127864405236,0.13878371,-0.14476576,10.003794,0.13683371,-0.14599667,-0.021227552,-91.2375,15.20625,44.643753,watch_1
26127857013882,0.3397808,-0.2548356,9.654441,0.032986697,-0.27794346,-0.017562363,-91.2375,15.20625,44.643753,watch_1
26127852051121,0.3397808,-0.2548356,9.654441,0.032986697,-0.27794346,-0.017562363,-91.2375,15.20625,44.643753,watch_1
26127874405184,0.3397808,-0.2548356,9.654441,0.032986697,-0.27794346,-0.017562363,-89.025,18.09375,42.0,watch_1
26127884405132,0.3397808,-0.2548356,9.654441,0.032986697,-0.27794346,-0.017562363,-89.775,15.13125,43.518753,watch_1
26127876086850,0.36370903,-0.15433706,9.855438,0.018325943,-0.056810424,-0.0029016077,-89.775,15.13125,43.518753,watch_1
26127871124090,0.36370903,-0.15433706,9.855438,0.018325943,-0.056810424,-0.0029016077,-89.775,15.13125,43.518753,watch_1
26127894405080,0.36370903,-0.15433706,9.855438,0.018325943,-0.056810424,-0.0029016077,-90.9,15.843751,43.0125,watch_1
26127904405027,0.36370903,-0.15433706,9.855438,0.018325943,-0.056810424,-0.0029016077,-90.637505,15.13125,44.568752,watch_1
26127895160861,0.20578274,-0.015553347,9.807582,0.015882485,0.216857,0.0129808765,-90.637505,15.13125,44.568752,watch_1
26127890198100,0.20578274,-0.015553347,9.807582,0.015882485,0.216857,0.0129808765,-90.637505,15.13125,44.568752,watch_1
26127914404975,0.20578274,-0.015553347,9.807582,0.015882485,0.216857,0.0129808765,-89.606255,14.981251,44.7,watch_1
26127914233882,-0.019142581,-0.034695927,9.826724,-0.05742129,0.23396121,0.0129808765,-89.606255,14.981251,44.7,watch_1
26127909271121,-0.019142581,-0.034695927,9.826724,-0.05742129,0.23396121,0.0129808765,-89.100006,15.95625,42.787502,watch_1
26127924404923,-0.019142581,-0.034695927,9.826724,-0.05742129,0.23396121,0.0129808765,-89.100006,15.95625,42.787502,watch_1
26127934404871,-0.019142581,-0.034695927,9.826724,-0.05742129,0.23396121,0.0129808765,-89.100006,15.95625,42.787502,watch_1
26127933307892,0.076570325,-0.04426722,9.812367,-0.017104214,-0.082466744,-0.005345067,-89.100006,15.95625,42.787502,watch_1
26127928345132,0.076570325,-0.04426722,9.812367,-0.017104214,-0.082466744,-0.005345067,-88.537506,18.45,42.018753,watch_1
26127944404819,0.076570325,-0.04426722,9.812367,-0.017104214,-0.082466744,-0.005345067,-88.537506,18.45,42.018753,watch_1
26127954404767,0.076570325,-0.04426722,9.812367,-0.017104214,-0.082466744,-0.005345067,-89.793755,16.25625,43.8375,watch_1
26127952380861,0.3062813,-0.17826529,9.7501545,-0.017104214,-0.082466744,-0.005345067,-89.793755,16.25625,43.8375,watch_1
26127947418100,0.3062813,-0.17826529,9.7501545,-0.014660755,-0.19730933,-0.013897174,-89.793755,16.25625,43.8375,watch_1
26127964404715,0.3062813,-0.17826529,9.7501545,-0.014660755,-0.19730933,-0.013897174,-89.006256,16.96875,41.68125,watch_1
26127974404663,0.3062813,-0.17826529,9.7501545,-0.014660755,-0.19730933,-0.013897174,-89.006256,16.96875,41.68125,watch_1
26127971454871,0.45942193,-1.0731809,11.12842,-0.13194679,-0.0067195124,-0.0004581486,-89.006256,16.96875,41.68125,watch_1
26127966492111,0.45942193,-1.0731809,11.12842,-0.13194679,-0.0067195124,-0.0004581486,-89.006256,16.96875,41.68125,watch_1
26127984404611,0.45942193,-1.0731809,11.12842,-0.13194679,-0.0067195124,-0.0004581486,-90.46875,15.76875,42.6375,watch_1
26127994404559,0.45942193,-1.0731809,11.12842,-0.13194679,-0.0067195124,-0.0004581486,-88.14375,18.862501,44.79375,watch_1
26127990527892,0.76570326,1.0037891,7.6683984,-1.011592,-0.23640467,0.12538,-88.14375,18.862501,44.79375,watch_1
26127985565132,0.76570326,1.0037891,7.6683984,-1.011592,-0.23640467,0.12538,-88.14375,18.862501,44.79375,watch_1
26128004404507,0.76570326,1.0037891,7.6683984,-1.011592,-0.23640467,0.12538,-89.512505,17.4375,43.3125,watch_1
26128014404455,0.76570326,1.0037891,7.6683984,-1.011592,-0.23640467,0.12538,-86.90625,16.800001,42.65625,watch_1
26128009570861,-0.8327023,0.12323037,10.90828,0.60964304,1.1820234,0.006872229,-88.3125,16.35,41.8125,watch_1
26128024404402,-0.8327023,0.12323037,10.90828,0.60964304,1.1820234,0.006872229,-88.3125,16.35,41.8125,watch_1
26128004608100,-0.8327023,0.12323037,10.90828,0.60964304,1.1820234,0.006872229,-88.3125,16.35,41.8125,watch_1
26128034404350,-0.8327023,0.12323037,10.90828,0.60964304,1.1820234,0.006872229,-88.537506,14.343751,42.28125,watch_1
26128028644871,0.38763726,-0.6520442,10.01815,0.60964304,1.1820234,0.006872229,-88.537506,14.343751,42.28125,watch_1
26128023682111,0.38763726,-0.6520442,10.01815,-0.06352994,-0.64324063,-0.07864884,-87.76875,15.525001,44.1375,watch_1
26128044404298,0.38763726,-0.6520442,10.01815,-0.06352994,-0.64324063,-0.07864884,-87.76875,15.525001,44.1375,watch_1
26128054404246,0.38763726,-0.6520442,10.01815,-0.06352994,-0.64324063,-0.07864884,-88.59375,14.38125,46.48125,watch_1
26128047717892,0.23449662,-0.46061835,8.649456,-0.06352994,-0.64324063,-0.07864884,-88.59375,14.38125,46.48125,watch_1
26128042755132,0.23449662,-0.46061835,8.649456,0.019547673,0.09957096,0.048411034,-88.59375,14.38125,46.48125,watch_1
26128064404194,0.23449662,-0.46061835,8.649456,0.019547673,0.09957096,0.048411034,-87.65625,16.2,46.125,watch_1
26128074404142,0.23449662,-0.46061835,8.649456,0.019547673,0.09957096,0.048411034,-88.200005,14.00625,46.706253,watch_1
26128066791850,-0.3589234,-0.14476576,9.8219385,0.019547673,0.09957096,0.048411034,-88.200005,14.00625,46.706253,watch_1
26128061829090,-0.3589234,-0.14476576,9.8219385,0.48136145,0.20097451,-0.0481056,-88.200005,14.00625,46.706253,watch_1
26128084404090,-0.3589234,-0.14476576,9.8219385,0.48136145,0.20097451,-0.0481056,-87.881256,14.19375,45.99375,watch_1
26128094404038,-0.3589234,-0.14476576,9.8219385,0.48136145,0.20097451,-0.0481056,-88.33125,12.8625,46.518753,watch_1
26128085864871,0.22971097,-0.07776674,10.755139,0.48136145,0.20097451,-0.0481056,-88.33125,12.8625,46.518753,watch_1
26128080902111,0.22971097,-0.07776674,10.755139,0.27244568,-0.71165746,-0.060322896,-88.33125,12.8625,46.518753,watch_1
26128104403986,0.22971097,-0.07776674,10.755139,0.27244568,-0.71165746,-0.060322896,-88.818756,12.337501,47.381252,watch_1
26128114403934,0.22971097,-0.07776674,10.755139,0.27244568,-0.71165746,-0.060322896,-88.05,15.281251,46.59375,watch_1
26128104938882,0.7178468,-0.101694964,9.285947,-0.1075122,-0.5393936,-0.032223117,-88.05,15.281251,46.59375,watch_1
26128099976121,0.7178468,-0.101694964,9.285947,-0.1075122,-0.5393936,-0.032223117,-88.05,15.281251,46.59375,watch_1
26128124403882,0.7178468,-0.101694964,9.285947,-0.1075122,-0.5393936,-0.032223117,-89.775,15.13125,43.518753,watch_1
26128124011850,0.5455636,-0.18305093,9.960723,-0.23090689,0.35491243,0.010537418,-88.40625,13.387501,47.325,watch_1
26128119049090,0.5455636,-0.18305093,9.960723,-0.23090689,0.35491243,0.010537418,-88.40625,13.387501,47.325,watch_1
26128134403830,0.5455636,-0.18305093,9.960723,-0.23090689,0.35491243,0.010537418,-88.40625,13.387501,47.325,watch_1
26128144403777,0.5455636,-0.18305093,9.960723,-0.23090689,0.35491243,0.010537418,-89.45625,15.168751,43.537502,watch_1
26128138123100,-0.16271193,-0.05383851,9.5252285,-0.08918626,0.80206543,0.04963276,-89.55,15.58125,44.2125,watch_1
26128143085861,-0.16271193,-0.05383851,9.5252285,-0.08918626,0.80206543,0.04963276,-89.45625,15.168751,43.537502,watch_1
26128154403725,-0.16271193,-0.05383851,9.5252285,-0.08918626,0.80206543,0.04963276,-89.55,15.58125,44.2125,watch_1
26128164403673,-0.16271193,-0.05383851,9.5252285,-0.08918626,0.80206543,0.04963276,-88.6125,17.38125,44.5875,watch_1
26128157196121,-0.3684947,-0.07776674,9.984651,-0.013439025,0.08002329,0.010537418,-89.756256,15.450001,42.018753,watch_1
26128162158882,-0.3684947,-0.07776674,9.984651,-0.013439025,0.08002329,0.010537418,-88.6125,17.38125,44.5875,watch_1
26128174403621,-0.3684947,-0.07776674,9.984651,-0.013439025,0.08002329,0.010537418,-89.756256,15.450001,42.018753,watch_1
26128184403569,-0.3684947,-0.07776674,9.984651,-0.013439025,0.08002329,0.010537418,-89.887505,14.137501,42.862503,watch_1
26128181201850,0.39720857,-0.2739782,9.75494,0.021991132,-0.63224506,-0.04444041,-89.887505,14.137501,42.862503,watch_1
26128176239090,0.39720857,-0.2739782,9.75494,0.021991132,-0.63224506,-0.04444041,-88.856255,15.075001,45.075,watch_1
26128194403517,0.39720857,-0.2739782,9.75494,0.021991132,-0.63224506,-0.04444041,-88.856255,15.075001,45.075,watch_1
26128204403465,0.39720857,-0.2739782,9.75494,0.021991132,-0.63224506,-0.04444041,-88.51875,16.987501,43.4625,watch_1
26128200275861,0.5838487,-0.2883351,9.664013,0.047647454,-0.28527385,-0.022449281,-88.51875,16.987501,43.4625,watch_1
26128195313100,0.5838487,-0.2883351,9.664013,0.047647454,-0.28527385,-0.022449281,-88.51875,16.987501,43.4625,watch_1
26128214403413,0.5838487,-0.2883351,9.664013,0.047647454,-0.28527385,-0.022449281,-89.193756,17.456251,44.662502,watch_1
26128224403361,0.5838487,-0.2883351,9.664013,0.047647454,-0.28527385,-0.022449281,-89.55,17.1375,43.631252,watch_1
26128219348882,0.32542387,-0.22612174,9.826724,0.047647454,-0.28527385,-0.022449281,-89.55,17.1375,43.631252,watch_1
26128214386121,0.32542387,-0.22612174,9.826724,0.017104214,0.28038692,0.008093959,-89.8125,14.85,43.0875,watch_1
26128234403309,0.32542387,-0.22612174,9.826724,0.017104214,0.28038692,0.008093959,-89.8125,14.85,43.0875,watch_1
26128244403257,-0.047856454,-0.029910283,9.841082,0.017104214,0.28038692,0.008093959,-89.68125,17.60625,41.381252,watch_1
26128238422892,-0.047856454,-0.029910283,9.841082,0.017104214,0.28038692,0.008093959,-89.68125,17.60625,41.381252,watch_1
26128233460132,-0.047856454,-0.029910283,9.841082,0.02687805,0.38056874,0.017867794,-89.175,16.66875,41.831253,watch_1
26128254403205,-0.047856454,-0.029910283,9.841082,0.02687805,0.38056874,0.017867794,-89.175,16.66875,41.831253,watch_1
26128264403152,-0.047856454,-0.029910283,9.841082,0.02687805,0.38056874,0.017867794,-88.106255,15.356251,43.6875,watch_1
26128257495861,-0.009571291,-0.0634098,9.841082,0.02687805,0.38056874,0.017867794,-88.106255,15.356251,43.6875,watch_1
26128252533100,-0.009571291,-0.0634098,9.841082,-0.043982264,-0.020158539,0.0019853106,-88.106255,15.356251,43.6875,watch_1
26128274403100,-0.009571291,-0.0634098,9.841082,-0.043982264,-0.020158539,0.0019853106,-88.106255,15.356251,43.6875,watch_1
26128284403048,-0.009571291,-0.0634098,9.841082,-0.043982264,-0.020158539,0.0019853106,-88.89375,13.218751,45.393753,watch_1
26128276569871,0.27756742,-0.05383851,9.817153,-0.043982264,-0.020158539,0.0019853106,-88.89375,13.218751,45.393753,watch_1
26128271607111,0.27756742,-0.05383851,9.817153,0.0024434591,-0.23884813,-0.010231985,-88.89375,13.218751,45.393753,watch_1
26128294402996,0.27756742,-0.05383851,9.817153,0.0024434591,-0.23884813,-0.010231985,-90.375,16.331251,43.612503,watch_1
26128295642892,0.30149564,-0.23569304,9.735797,-0.028099779,-0.005497783,-0.0029016077,-88.70625,16.6875,43.631252,watch_1
26128290680132,0.30149564,-0.23569304,9.735797,-0.028099779,-0.005497783,-0.0029016077,-88.70625,16.6875,43.631252,watch_1
26128304402944,0.27756742,-0.05383851,9.817153,0.0024434591,-0.23884813,-0.010231985,-88.70625,16.6875,43.631252,watch_1
26128314402892,0.30149564,-0.23569304,9.735797,-0.028099779,-0.005497783,-0.0029016077,-89.006256,16.96875,41.9625,watch_1
26128314716850,0.13878371,-0.2644069,9.788439,-0.028099779,-0.005497783,-0.0029016077,-89.006256,14.137501,42.393753,watch_1
26128309754090,0.13878371,-0.2644069,9.788439,0.008552107,0.13133593,0.00320704,-88.14375,16.5,42.693752,watch_1
26128324402840,0.13878371,-0.2644069,9.788439,-0.028099779,-0.005497783,-0.0029016077,-89.006256,14.137501,42.393753,watch_1
26128334402788,0.13878371,-0.2644069,9.788439,0.008552107,0.13133593,0.00320704,-88.14375,16.5,42.693752,watch_1
26128333758882,0.124426775,-0.24047868,9.778868,0.0073303776,0.0042760535,-0.0004581486,-88.14375,16.5,42.693752,watch_1
26128328796121,0.124426775,-0.24047868,9.778868,0.0073303776,0.0042760535,-0.0004581486,-90.24375,16.518751,42.018753,watch_1
26128344402736,0.124426775,-0.24047868,9.778868,0.0073303776,0.0042760535,-0.0004581486,-90.24375,16.518751,42.018753,watch_1
26128354402684,0.124426775,-0.24047868,9.778868,0.0073303776,0.0042760535,-0.0004581486,-87.95625,16.63125,43.85625,watch_1
26128347870132,0.124426775,-0.24047868,9.778868,0.008552107,-0.08124501,-0.0029016077,-87.95625,15.825001,43.3875,watch_1
26128364402632,0.124426775,-0.24047868,9.778868,0.008552107,-0.08124501,-0.0029016077,-87.75,15.825001,43.3875,watch_1
26128352832892,0.23449662,-0.14955142,9.798011,0.008552107,-0.08124501,-0.0029016077,-87.75,15.825001,43.3875,watch_1
26128374402580,0.23449662,-0.14955142,9.798011,0.008552107,-0.08124501,-0.0029016077,-88.575005,16.575,42.768753,watch_1
26128371905861,0.19142582,-0.015553347,9.865009,0.015882485,0.017715078,0.0019853106,-88.575005,16.575,42.768753,watch_1
26128366943100,0.19142582,-0.015553347,9.865009,0.015882485,0.017715078,0.0019853106,-87.61875,15.375001,45.037502,watch_1
26128384402527,0.19142582,-0.015553347,9.865009,0.015882485,0.017715078,0.0019853106,-87.61875,15.375001,45.037502,watch_1
26128394402475,0.19142582,-0.015553347,9.865009,0.015882485,0.017715078,0.0019853106,-88.875,13.200001,46.425003,watch_1
26128390979871,0.09571291,-0.1160519,9.798011,-0.020769402,0.083688475,0.0019853106,-88.875,13.200001,46.425003,watch_1
26128386017111,0.09571291,-0.1160519,9.798011,-0.020769402,0.083688475,0.0019853106,-88.875,13.200001,46.425003,watch_1
26128404402423,0.09571291,-0.1160519,9.798011,-0.020769402,0.083688475,0.0019853106,-87.9,14.231251,44.53125,watch_1
26128414402371,0.09571291,-0.1160519,9.798011,-0.020769402,0.083688475,0.0019853106,-88.5,15.712501,44.325,watch_1
26128410052892,0.13878371,-0.17826529,9.802796,-0.020769402,0.083688475,0.0019853106,-88.5,15.712501,44.325,watch_1
26128405090132,0.13878371,-0.17826529,9.802796,-0.0012217296,-0.033597562,-0.0029016077,-86.512505,14.700001,44.362503,watch_1
26128424402319,0.13878371,-0.17826529,9.802796,-0.0012217296,-0.033597562,-0.0029016077,-86.512505,14.700001,44.362503,watch_1
26128434402267,0.13878371,-0.17826529,9.802796,-0.0012217296,-0.033597562,-0.0029016077,-87.412506,11.400001,47.49375,watch_1
26128424164090,0.2727818,-0.24047868,9.764511,-0.0073303776,-0.08124501,-0.004123337,-87.412506,11.400001,47.49375,watch_1
26128429126850,0.2727818,-0.24047868,9.764511,-0.0073303776,-0.08124501,-0.004123337,-87.412506,11.400001,47.49375,watch_1
26128444402215,0.2727818,-0.24047868,9.764511,-0.0073303776,-0.08124501,-0.004123337,-88.6875,13.650001,46.537502,watch_1
26128454402163,0.2727818,-0.24047868,9.764511,-0.0073303776,-0.08124501,-0.004123337,-86.26875,11.118751,47.2125,watch_1
26128448199871,0.2536392,-0.2213361,9.798011,0.0048869182,0.01527162,0.00076358096,-86.26875,11.118751,47.2125,watch_1
26128443237111,0.2536392,-0.2213361,9.798011,0.0048869182,0.01527162,0.00076358096,-86.26875,11.118751,47.2125,watch_1
26128464402111,0.2536392,-0.2213361,9.798011,0.0048869182,0.01527162,0.00076358096,-87.168755,13.70625,46.85625,watch_1
26128474402059,0.2536392,-0.2213361,9.798011,0.0048869182,0.01527162,0.00076358096,-88.818756,13.950001,45.3375,watch_1
26128467273882,0.15792629,-0.12562318,9.802796,0.0024434591,0.06902772,0.0044287695,-88.818756,13.950001,45.3375,watch_1
26128462311121,0.15792629,-0.12562318,9.802796,0.0024434591,0.06902772,0.0044287695,-88.818756,13.950001,45.3375,watch_1
26128484402007,0.15792629,-0.12562318,9.802796,0.0024434591,0.06902772,0.0044287695,-86.4375,15.4125,44.30625,watch_1
26128494401955,0.15792629,-0.12562318,9.802796,0.0024434591,0.06902772,0.0044287695,-87.75,12.468751,47.775,watch_1
26128486346850,0.124426775,-0.08255238,9.817153,0.0036651888,0.0067195124,0.00076358096,-87.75,12.468751,47.775,watch_1
26128481384090,0.124426775,-0.08255238,9.817153,0.0036651888,0.0067195124,0.00076358096,-87.75,12.468751,47.775,watch_1
26128504401902,0.124426775,-0.08255238,9.817153,0.0036651888,0.0067195124,0.00076358096,-87.825005,11.775001,47.268753,watch_1
26128514401850,0.16749759,-0.096909314,9.812367,-0.0024434591,-0.04092794,-0.0029016077,-87.825005,11.775001,47.268753,watch_1
26128505389871,0.16749759,-0.096909314,9.812367,-0.0024434591,-0.04092794,-0.0029016077,-87.825005,11.775001,47.268753,watch_1
26128500427111,0.16749759,-0.096909314,9.812367,-0.0024434591,-0.04092794,-0.0029016077,-87.825005,11.775001,47.268753,watch_1
26128524401798,0.16749759,-0.096909314,9.812367,-0.0024434591,-0.04092794,-0.0029016077,-88.2375,15.4875,43.068752,watch_1
26128524463882,0.19142582,-0.18783657,9.788439,-0.0073303776,0.0042760535,-0.0016798781,-88.2375,15.4875,43.068752,watch_1
26128519501121,0.19142582,-0.18783657,9.788439,-0.0073303776,0.0042760535,-0.0016798781,-88.2375,15.4875,43.068752,watch_1
26128534401746,0.19142582,-0.18783657,9.788439,-0.0073303776,0.0042760535,-0.0016798781,-87.543755,13.425,44.8125,watch_1
26128544401694,0.19142582,-0.18783657,9.788439,-0.0073303776,0.0042760535,-0.0016798781,-89.625,15.000001,43.96875,watch_1
26128543536850,0.16749759,-0.24526432,9.774082,-0.0036651888,0.022601997,-0.0004581486,-89.625,15.000001,43.96875,watch_1
26128538574090,0.16749759,-0.24526432,9.774082,-0.0036651888,0.022601997,-0.0004581486,-89.625,15.000001,43.96875,watch_1
26128554401642,0.16749759,-0.24526432,9.774082,-0.0036651888,0.022601997,-0.0004581486,-88.725006,14.962501,44.5125,watch_1
26128564401590,0.16749759,-0.24526432,9.774082,-0.0036651888,0.022601997,-0.0004581486,-89.662506,16.143751,42.99375,watch_1
26128562610861,0.20578274,-0.20697916,9.798011,0.0024434591,-0.018936807,-0.0016798781,-89.662506,16.143751,42.99375,watch_1
26128574401538,0.20578274,-0.20697916,9.798011,0.0024434591,-0.018936807,-0.0016798781,-88.4625,12.675,47.68125,watch_1
26128557648100,0.20578274,-0.20697916,9.798011,0.0024434591,-0.018936807,-0.0016798781,-88.4625,12.675,47.68125,watch_1
26128584401486,0.20578274,-0.20697916,9.798011,0.0024434591,-0.018936807,-0.0016798781,-87.1875,13.725,45.825,watch_1
26128581683882,0.22971097,-0.13519448,9.8219385,0.008552107,-0.021380268,-0.0016798781,-87.1875,13.725,45.825,watch_1
26128576721121,0.22971097,-0.13519448,9.8219385,0.008552107,-0.021380268,-0.0016798781,-87.1875,13.725,45.825,watch_1
26128594401434,0.22971097,-0.13519448,9.8219385,0.008552107,-0.021380268,-0.0016798781,-88.55625,15.13125,44.081253,watch_1
26128604401382,0.22971097,-0.13519448,9.8219385,0.008552107,-0.021380268,-0.0016798781,-87.825005,13.35,46.518753,watch_1
26128600757892,0.19621146,-0.101694964,9.812367,0.008552107,-0.021380268,-0.0016798781,-87.825005,13.35,46.518753,watch_1
26128595795132,0.19621146,-0.101694964,9.812367,-0.0024434591,0.0140498895,0.00076358096,-87.825005,13.35,46.518753,watch_1
26128614401330,0.19621146,-0.101694964,9.812367,-0.0024434591,0.0140498895,0.00076358096,-88.14375,14.606251,45.3375,watch_1
26128624401277,0.19621146,-0.101694964,9.812367,-0.0024434591,0.0140498895,0.00076358096,-88.8375,13.481251,46.6875,watch_1
26128619830861,0.148355,-0.106480606,9.812367,-0.0024434591,0.0140498895,0.00076358096,-88.8375,13.481251,46.6875,watch_1
26128614868100,0.148355,-0.106480606,9.812367,-0.0012217296,0.026267186,0.00076358096,-88.8375,13.481251,46.6875,watch_1
26128634401225,0.148355,-0.106480606,9.812367,-0.0012217296,0.026267186,0.00076358096,-87.58125,14.55,44.550003,watch_1
26128644401173,0.148355,-0.106480606,9.812367,-0.0012217296,0.026267186,0.00076358096,-89.9625,14.512501,45.300003,watch_1
26128638904871,0.15314065,-0.16869399,9.793225,-0.0061086477,-0.005497783,-0.0004581486,-89.9625,14.512501,45.300003,watch_1
26128633942111,0.15314065,-0.16869399,9.793225,-0.0061086477,-0.005497783,-0.0004581486,-89.9625,14.512501,45.300003,watch_1
26128654401121,0.15314065,-0.16869399,9.793225,-0.0061086477,-0.005497783,-0.0004581486,-89.3625,14.587501,44.775,watch_1
26128664401069,0.15314065,-0.16869399,9.793225,-0.0061086477,-0.005497783,-0.0004581486,-88.856255,15.093751,44.34375,watch_1
26128657977892,0.17706887,-0.20219351,9.774082,-0.0024434591,-0.01527162,-0.0016798781,-88.856255,15.093751,44.34375,watch_1
26128653015132,0.17706887,-0.20219351,9.774082,-0.0024434591,-0.01527162,-0.0016798781,-88.856255,15.093751,44.34375,watch_1
26128674401017,0.17706887,-0.20219351,9.774082,-0.0024434591,-0.01527162,-0.0016798781,-88.78125,14.55,44.268753,watch_1
26128684400965,0.17706887,-0.20219351,9.774082,-0.0024434591,-0.01527162,-0.0016798781,-88.350006,14.137501,45.506252,watch_1
26128677020861,0.19142582,-0.19262223,9.778868,-0.0012217296,0.005497783,-0.0004581486,-88.350006,14.137501,45.506252,watch_1
26128672058100,0.19142582,-0.19262223,9.778868,-0.0012217296,0.005497783,-0.0004581486,-88.350006,14.137501,45.506252,watch_1
26128694400913,0.19142582,-0.19262223,9.778868,-0.0012217296,0.005497783,-0.0004581486,-88.725006,14.475,47.625,watch_1
26128704400861,0.19142582,-0.19262223,9.778868,-0.0012217296,0.005497783,-0.0004581486,-88.4625,14.250001,46.65,watch_1
26128696094871,0.18185452,-0.13998012,9.812367,0.0048869182,-0.0006108648,-0.0004581486,-88.4625,14.250001,46.65,watch_1
26128691132111,0.18185452,-0.13998012,9.812367,0.0048869182,-0.0006108648,-0.0004581486,-88.4625,14.250001,46.65,watch_1
26128714400809,0.18185452,-0.13998012,9.812367,0.0048869182,-0.0006108648,-0.0004581486,-89.137505,15.187501,44.8875,watch_1
26128724400757,0.18664017,-0.106480606,9.817153,0.0048869182,-0.0006108648,-0.0004581486,-89.418755,15.431251,44.831253,watch_1
26128715167892,0.18664017,-0.106480606,9.817153,0.0048869182,-0.0006108648,-0.0004581486,-89.418755,15.431251,44.831253,watch_1
26128710205132,0.18664017,-0.106480606,9.817153,0.0024434591,-0.009162972,-0.0004581486,-89.418755,15.431251,44.831253,watch_1
26128734400705,0.18185452,-0.12083755,9.812367,-0.0012217296,0.009162972,-0.0004581486,-87.881256,17.362501,43.5,watch_1
26128744400652,0.18185452,-0.12083755,9.812367,-0.0012217296,0.009162972,-0.0004581486,-87.881256,17.362501,43.5,watch_1
26128734241850,0.18185452,-0.12083755,9.812367,-0.0012217296,0.009162972,-0.0004581486,-87.881256,17.362501,43.5,watch_1
26128729279090,0.18185452,-0.12083755,9.812367,-0.0012217296,0.009162972,-0.0004581486,-88.631256,14.400001,44.86875,watch_1
26128754400600,0.18185452,-0.12083755,9.812367,-0.0012217296,0.009162972,-0.0004581486,-88.631256,14.400001,44.86875,watch_1
26128753314871,0.17228323,-0.17347965,9.802796,-0.0012217296,0.009162972,-0.0004581486,-88.631256,14.400001,44.86875,watch_1
26128748352111,0.17228323,-0.17347965,9.802796,-0.0036651888,0.009162972,-0.0004581486,-88.631256,14.400001,44.86875,watch_1
26128764400548,0.17228323,-0.17347965,9.802796,-0.0036651888,0.009162972,-0.0004581486,-87.075005,11.868751,46.893753,watch_1
26128774400496,0.17228323,-0.17347965,9.802796,-0.0036651888,0.009162972,-0.0004581486,-89.4,15.900001,42.75,watch_1
26128772388882,0.17706887,-0.18783657,9.783653,-0.0024434591,-0.005497783,-0.0016798781,-87.675,13.5375,44.625,watch_1
26128767426121,0.17706887,-0.18783657,9.783653,-0.0024434591,-0.005497783,-0.0016798781,-87.675,13.5375,44.625,watch_1
26128784400444,0.17706887,-0.18783657,9.783653,-0.0024434591,-0.005497783,-0.0016798781,-87.675,13.5375,44.625,watch_1
26128794400392,0.17706887,-0.18783657,9.783653,-0.0024434591,-0.005497783,-0.0016798781,-88.6125,14.700001,44.41875,watch_1
26128786499090,0.18664017,-0.19262223,9.802796,0.0,-0.005497783,-0.0016798781,-88.6125,14.700001,44.41875,watch_1
26128791461850,0.18664017,-0.19262223,9.802796,0.0,-0.005497783,-0.0016798781,-88.6125,14.700001,44.41875,watch_1
26128804400340,0.18664017,-0.19262223,9.802796,0.0,-0.005497783,-0.0016798781,-89.83125,12.993751,44.4375,watch_1
26128814400288,0.19142582,-0.13998012,9.802796,0.0,-0.005497783,-0.0016798781,-87.4875,15.262501,44.925003,watch_1
26128810535861,0.19142582,-0.13998012,9.802796,0.0048869182,-0.0006108648,-0.0004581486,-87.4875,15.262501,44.925003,watch_1
26128805573100,0.19142582,-0.13998012,9.802796,0.0048869182,-0.0006108648,-0.0004581486,-88.912506,14.681251,43.800003,watch_1
26128834400184,0.19142582,-0.13998012,9.802796,0.0048869182,-0.0006108648,-0.0004581486,-86.568756,15.525001,44.71875,watch_1
26128824400236,0.19142582,-0.13998012,9.802796,0.0048869182,-0.0006108648,-0.0004581486,-86.568756,15.525001,44.71875,watch_1
26128829578882,0.18185452,-0.12083755,9.802796,0.0012217296,0.0030543238,-0.0004581486,-86.568756,15.525001,44.71875,watch_1
26128824616121,0.18185452,-0.12083755,9.802796,0.0012217296,0.0030543238,-0.0004581486,-87.99375,16.050001,44.925003,watch_1
26128844400132,0.18185452,-0.12083755,9.802796,0.0012217296,0.0030543238,-0.0004581486,-87.99375,16.050001,44.925003,watch_1
26128854400080,0.18185452,-0.12083755,9.802796,0.0012217296,0.0030543238,-0.0004581486,-86.793755,14.306251,47.71875,watch_1
26128843689090,0.17228323,-0.13519448,9.817153,0.0012217296,-0.0006108648,-0.0004581486,-86.793755,14.306251,47.71875,watch_1
26128848651850,0.17228323,-0.13519448,9.817153,0.0012217296,-0.0006108648,-0.0004581486,-86.793755,14.306251,47.71875,watch_1
26128864400027,0.17228323,-0.13519448,9.817153,0.0012217296,-0.0006108648,-0.0004581486,-86.90625,13.293751,47.79375,watch_1
26128874399975,0.17228323,-0.13519448,9.817153,0.0012217296,-0.0006108648,-0.0004581486,-89.193756,14.437501,46.55625,watch_1
26128867725861,0.17706887,-0.16390835,9.783653,-0.0036651888,-0.0006108648,-0.0016798781,-89.193756,14.437501,46.55625,watch_1
26128862763100,0.17706887,-0.16390835,9.783653,-0.0036651888,-0.0006108648,-0.0016798781,-89.53125,16.03125,42.581253,watch_1
26128884399923,0.17706887,-0.16390835,9.783653,-0.0036651888,-0.0006108648,-0.0016798781,-89.53125,16.03125,42.581253,watch_1
26128894399871,0.17706887,-0.16390835,9.783653,-0.0036651888,-0.0006108648,-0.0016798781,-88.3125,17.118752,45.65625,watch_1
26128886798882,0.16749759,-0.19262223,9.798011,-0.0012217296,0.0030543238,-0.0016798781,-88.3125,17.118752,45.65625,watch_1
26128881836121,0.16749759,-0.19262223,9.798011,-0.0012217296,0.0030543238,-0.0016798781,-88.3125,17.118752,45.65625,watch_1
26128904399819,0.16749759,-0.19262223,9.798011,-0.0012217296,0.0030543238,-0.0016798781,-90.037506,13.950001,44.325,watch_1
26128914399767,0.16749759,-0.19262223,9.798011,-0.0012217296,0.0030543238,-0.0016798781,-88.3125,14.437501,45.487503,watch_1
26128905872892,0.18185452,-0.16869399,9.793225,0.0024434591,-0.005497783,-0.0004581486,-88.3125,14.437501,45.487503,watch_1
26128900910132,0.18185452,-0.16869399,9.793225,0.0024434591,-0.005497783,-0.0004581486,-88.3125,14.437501,45.487503,watch_1
26128924399715,0.18185452,-0.16869399,9.793225,0.0024434591,-0.005497783,-0.0004581486,-88.875,15.1125,43.03125,watch_1
26128934399663,0.2009971,-0.15433706,9.802796,0.0024434591,-0.005497783,-0.0004581486,-88.668755,14.137501,44.175003,watch_1
26128924945861,0.2009971,-0.15433706,9.802796,0.0024434591,-0.005497783,-0.0004581486,-88.668755,14.137501,44.175003,watch_1
26128919983100,0.2009971,-0.15433706,9.802796,0.0012217296,-0.005497783,-0.0004581486,-88.668755,14.137501,44.175003,watch_1
26128944399611,0.2009971,-0.15433706,9.802796,0.0012217296,-0.005497783,-0.0004581486,-90.4875,13.89375,43.987503,watch_1
26128944019871,0.19142582,-0.12083755,9.8219385,0.0024434591,0.0018325944,-0.0004581486,-88.200005,15.431251,45.412502,watch_1
26128939057111,0.19142582,-0.12083755,9.8219385,0.0024434591,0.0018325944,-0.0004581486,-88.200005,15.431251,45.412502,watch_1
26128954399559,0.19142582,-0.12083755,9.8219385,0.0024434591,0.0018325944,-0.0004581486,-88.200005,15.431251,45.412502,watch_1
26128964399507,0.19142582,-0.12083755,9.8219385,0.0024434591,0.0018325944,-0.0004581486,-88.762505,14.512501,45.28125,watch_1
26128963092892,0.18664017,-0.13040884,9.802796,-0.0024434591,0.0042760535,-0.0004581486,-88.762505,14.512501,45.28125,watch_1
26128958130132,0.18664017,-0.13040884,9.802796,-0.0024434591,0.0042760535,-0.0004581486,-88.762505,14.512501,45.28125,watch_1
26128984399402,0.18664017,-0.16390835,9.807582,-0.0024434591,0.0042760535,-0.0004581486,-87.65625,16.85625,42.28125,watch_1
26128977203100,0.18664017,-0.16390835,9.807582,-0.0024434591,0.0018325944,-0.0004581486,-88.33125,17.456251,42.862503,watch_1
26128982165861,0.18664017,-0.16390835,9.807582,-0.0024434591,0.0018325944,-0.0004581486,-88.33125,17.456251,42.862503,watch_1
26128974399455,0.18664017,-0.13040884,9.802796,-0.0024434591,0.0042760535,-0.0004581486,-87.65625,16.85625,42.28125,watch_1
26128994399350,0.18664017,-0.16390835,9.807582,-0.0024434591,0.0018325944,-0.0004581486,-88.6125,16.3125,42.075,watch_1
26129004399298,0.18664017,-0.16390835,9.807582,-0.0024434591,0.0018325944,-0.0004581486,-88.6125,16.3125,42.075,watch_1
26129001208882,0.18185452,-0.16869399,9.778868,-0.0024434591,0.0018325944,-0.0004581486,-88.6125,16.3125,42.075,watch_1
26129014399246,0.18185452,-0.16869399,9.778868,-0.0024434591,0.0006108648,-0.0004581486,-88.0875,15.337501,44.268753,watch_1
26128996246121,0.18185452,-0.16869399,9.778868,-0.0024434591,0.0006108648,-0.0004581486,-88.0875,15.337501,44.268753,watch_1
26129024399194,0.18185452,-0.16869399,9.778868,-0.0024434591,0.0006108648,-0.0004581486,-87.46875,15.88125,42.393753,watch_1
26129015320132,0.15792629,-0.17347965,9.783653,-0.0012217296,0.007941242,-0.0004581486,-87.46875,15.88125,42.393753,watch_1
26129034399142,0.15792629,-0.17347965,9.783653,-0.0012217296,0.007941242,-0.0004581486,-88.18125,16.21875,42.28125,watch_1
26129020282892,0.15792629,-0.17347965,9.783653,-0.0024434591,0.0006108648,-0.0004581486,-87.46875,15.88125,42.393753,watch_1
26129044399090,0.15792629,-0.17347965,9.783653,-0.0012217296,0.007941242,-0.0004581486,-88.575005,16.575,43.068752,watch_1
26129034393100,0.16749759,-0.14955142,9.802796,0.0024434591,-0.0018325944,-0.0004581486,-88.575005,16.575,43.068752,watch_1
26129039355861,0.16749759,-0.14955142,9.802796,0.0024434591,-0.0018325944,-0.0004581486,-88.575005,16.575,43.068752,watch_1
26129054399038,0.16749759,-0.14955142,9.802796,0.0024434591,-0.0018325944,-0.0004581486,-88.575005,15.168751,43.068752,watch_1
26129064398986,0.16749759,-0.14955142,9.802796,0.0024434591,-0.0018325944,-0.0004581486,-90.43125,17.493752,41.8875,watch_1
26129058429871,0.17706887,-0.13998012,9.798011,0.0,-0.0030543238,-0.0004581486,-90.43125,17.493752,41.8875,watch_1
26129053467111,0.17706887,-0.13998012,9.798011,0.0,-0.0030543238,-0.0004581486,-90.43125,17.493752,41.8875,watch_1
26129074398934,0.17706887,-0.13998012,9.798011,0.0,-0.0030543238,-0.0004581486,-88.762505,16.125,43.237503,watch_1
26129084398882,0.17706887,-0.13998012,9.798011,0.0,-0.0030543238,-0.0004581486,-88.912506,15.168751,40.706253,watch_1
26129077502892,0.18185452,-0.13998012,9.807582,0.0,0.0018325944,-0.0016798781,-88.912506,15.168751,40.706253,watch_1
26129072540132,0.18185452,-0.13998012,9.807582,0.0,0.0018325944,-0.0016798781,-88.912506,15.168751,40.706253,watch_1
26129091614090,0.18185452,-0.13998012,9.807582,-0.0012217296,-0.0030543238,-0.0016798781,-88.912506,15.168751,40.706253,watch_1
26129094398830,0.18185452,-0.13998012,9.807582,-0.0012217296,-0.0030543238,-0.0016798781,-88.293755,16.3125,43.85625,watch_1
26129096576850,0.19142582,-0.15433706,9.798011,-0.0012217296,-0.0030543238,-0.0016798781,-88.21875,17.04375,42.768753,watch_1
26129104398777,0.19142582,-0.15433706,9.798011,-0.0012217296,-0.0030543238,-0.0016798781,-88.21875,17.04375,42.768753,watch_1
26129114398725,0.19142582,-0.15433706,9.798011,-0.0012217296,-0.0030543238,-0.0016798781,-89.775,16.575,42.787502,watch_1
26129115649871,0.18664017,-0.16869399,9.802796,-0.0012217296,-0.0030543238,-0.0016798781,-89.775,16.575,42.787502,watch_1
26129110687111,0.18664017,-0.16869399,9.802796,-0.0012217296,-0.0018325944,-0.0004581486,-89.775,16.575,42.787502,watch_1
26129124398673,0.18664017,-0.16869399,9.802796,-0.0012217296,-0.0018325944,-0.0004581486,-89.700005,15.88125,42.43125,watch_1
26129134398621,0.18664017,-0.16869399,9.802796,-0.0012217296,-0.0018325944,-0.0004581486,-89.700005,15.88125,42.43125,watch_1
26129134723882,0.18185452,-0.1591227,9.812367,-0.0012217296,-0.0018325944,-0.0004581486,-89.700005,15.88125,42.43125,watch_1
26129129761121,0.18185452,-0.1591227,9.812367,0.0,0.0042760535,-0.0004581486,-89.700005,15.88125,42.43125,watch_1
26129144398569,0.18185452,-0.1591227,9.812367,0.0,0.0042760535,-0.0004581486,-88.8375,15.731251,41.662502,watch_1
26129154398517,0.18185452,-0.1591227,9.812367,0.0,0.0042760535,-0.0004581486,-89.90625,15.281251,42.9,watch_1
26129153766850,0.18185452,-0.14476576,9.783653,0.0,0.0042760535,-0.0004581486,-89.90625,15.281251,42.9,watch_1
26129148804090,0.18185452,-0.14476576,9.783653,-0.0012217296,0.0030543238,-0.0004581486,-88.36875,15.281251,45.2625,watch_1
26129164398465,0.18185452,-0.14476576,9.783653,-0.0012217296,0.0030543238,-0.0004581486,-88.36875,15.281251,45.2625,watch_1
26129174398413,0.18185452,-0.14476576,9.783653,-0.0012217296,0.0030543238,-0.0004581486,-89.34375,16.1625,44.04375,watch_1
26129172839871,0.17228323,-0.14955142,9.788439,-0.0012217296,0.0030543238,-0.0004581486,-89.34375,16.1625,44.04375,watch_1
26129167877111,0.17228323,-0.14955142,9.788439,-0.0012217296,0.0030543238,-0.0004581486,-89.34375,16.1625,44.04375,watch_1
26129184398361,0.17228323,-0.14955142,9.788439,-0.0012217296,0.0030543238,-0.0004581486,-88.162506,16.21875,42.7125,watch_1
26129194398309,0.17228323,-0.14955142,9.788439,-0.0012217296,0.0030543238,-0.0004581486,-88.725006,15.3,42.600002,watch_1
26129186951121,0.18185452,-0.13998012,9.817153,0.0012217296,-0.0018325944,-0.0004581486,-88.96875,16.931252,43.725002,watch_1
26129204398257,0.18185452,-0.13998012,9.817153,0.0012217296,-0.0018325944,-0.0004581486,-88.96875,16.931252,43.725002,watch_1
26129191913882,0.18185452,-0.13998012,9.817153,0.0012217296,-0.0018325944,-0.0004581486,-88.725006,15.3,42.600002,watch_1
26129214398205,0.18185452,-0.13998012,9.817153,0.0012217296,-0.0018325944,-0.0004581486,-89.231255,14.156251,45.99375,watch_1
26129210986850,0.17228323,-0.17347965,9.798011,0.0012217296,-0.0018325944,-0.0004581486,-89.231255,14.156251,45.99375,watch_1
26129206024090,0.17228323,-0.17347965,9.798011,-0.0024434591,-0.0030543238,-0.0004581486,-87.637505,10.462501,49.74375,watch_1
26129224398152,0.17228323,-0.17347965,9.798011,-0.0024434591,-0.0030543238,-0.0004581486,-87.637505,10.462501,49.74375,watch_1
