# Session ID: 20250816_094036
# Start Time: 1755330036507
# Device ID: watch_1
# Sample Count: 2804
# Generated by Watch IMU Recorder
timestamp,accel_x,accel_y,accel_z,gyro_x,gyro_y,gyro_z,mag_x,mag_y,mag_z,watch_name
15095391777870,-4.508078,-3.4564323,8.405388,0.02687805,0.031154104,-0.046883874,5.4187503,2.3812501,-38.925003,watch_1
15095373080057,-4.508078,-3.4564323,8.405388,0.02687805,0.031154104,-0.046883874,5.4187503,2.3812501,-38.925003,watch_1
15095410851880,-4.6899323,-3.6478581,8.802596,0.02687805,0.031154104,-0.046883874,5.4187503,2.3812501,-38.925003,watch_1
15095405889120,-4.6899323,-3.6478581,8.802596,-0.16493349,-0.089797124,-0.016340632,5.4187503,2.3812501,-38.925003,watch_1
15095443144380,-4.6899323,-3.6478581,8.802596,-0.16493349,-0.089797124,-0.016340632,22.575,10.33125,-22.9125,watch_1
15095429924901,-4.4410787,-3.6813576,8.998808,-0.16493349,-0.089797124,-0.016340632,22.575,10.33125,-22.9125,watch_1
15095424962141,-4.4410787,-3.6813576,8.998808,-0.21868959,-0.1508836,-0.007788526,22.575,10.33125,-22.9125,watch_1
15095453144328,-4.4410787,-3.6813576,8.998808,-0.21868959,-0.1508836,-0.007788526,22.25625,12.8625,-23.625,watch_1
15095448998912,-4.034299,-3.7005002,8.362317,-0.21380267,-0.17898338,0.008093959,22.25625,12.8625,-23.625,watch_1
15095444036151,-4.034299,-3.7005002,8.362317,-0.21380267,-0.17898338,0.008093959,22.25625,12.8625,-23.625,watch_1
15095463144276,-4.034299,-3.7005002,8.362317,-0.21380267,-0.17898338,0.008093959,20.6625,12.093751,-24.16875,watch_1
15095473144224,-4.034299,-3.7005002,8.362317,-0.21380267,-0.17898338,0.008093959,21.91875,10.950001,-22.3125,watch_1
15095468071880,-3.8620157,-3.4564323,8.113463,-0.21380267,-0.17898338,0.008093959,21.91875,10.950001,-22.3125,watch_1
15095463109120,-3.8620157,-3.4564323,8.113463,-0.13683371,-0.21074834,0.056963142,21.91875,10.950001,-22.3125,watch_1
15095483144172,-3.8620157,-3.4564323,8.113463,-0.13683371,-0.21074834,0.056963142,21.75,10.78125,-22.181252,watch_1
15095493144120,-3.8620157,-3.4564323,8.113463,-0.13683371,-0.21074834,0.056963142,19.59375,10.556251,-24.431252,watch_1
15095482152141,-3.8620157,-3.4564323,8.113463,-0.18325943,-0.25228715,0.09483676,19.59375,10.556251,-24.431252,watch_1
15095487114901,-3.8476589,-3.365505,8.194819,-0.18325943,-0.25228715,0.09483676,19.59375,10.556251,-24.431252,watch_1
15095503144068,-3.8476589,-3.365505,8.194819,-0.18325943,-0.25228715,0.09483676,21.69375,11.94375,-23.75625,watch_1
15095513144016,-3.8476589,-3.365505,8.194819,-0.18325943,-0.25228715,0.09483676,21.5625,11.7375,-22.29375,watch_1
15095501226151,-3.991228,-3.714857,8.850452,-0.31154105,-0.32314748,0.13271037,21.5625,11.7375,-22.29375,watch_1
15095506188912,-3.991228,-3.714857,8.850452,-0.31154105,-0.32314748,0.13271037,21.5625,11.7375,-22.29375,watch_1
15095523143964,-3.991228,-3.714857,8.850452,-0.31154105,-0.32314748,0.13271037,19.706251,11.55,-24.093752,watch_1
15095533143912,-3.991228,-3.714857,8.850452,-0.31154105,-0.32314748,0.13271037,18.375,14.83125,-27.187502,watch_1
15095525261880,-3.9816568,-3.6574295,9.195019,-0.31154105,-0.32314748,0.13271037,18.375,14.83125,-27.187502,watch_1
15095520299120,-3.9816568,-3.6574295,9.195019,-0.505796,-0.4318814,0.14004076,18.375,14.83125,-27.187502,watch_1
15095543143860,-3.9816568,-3.6574295,9.195019,-0.505796,-0.4318814,0.14004076,22.087502,11.1,-22.181252,watch_1
15095553143807,-3.9816568,-3.6574295,9.195019,-0.505796,-0.4318814,0.14004076,18.54375,13.387501,-24.843752,watch_1
15095544335891,-3.6179478,-3.757928,8.72124,-0.505796,-0.4318814,0.14004076,18.54375,13.387501,-24.843752,watch_1
15095539373130,-3.6179478,-3.757928,8.72124,-0.6743947,-0.5674934,0.18157956,18.54375,13.387501,-24.843752,watch_1
15095563143755,-3.6179478,-3.757928,8.72124,-0.6743947,-0.5674934,0.18157956,17.925001,16.181252,-26.925001,watch_1
15095573143703,-3.6179478,-3.757928,8.72124,-0.6743947,-0.5674934,0.18157956,17.00625,15.918751,-26.868752,watch_1
15095563408912,-3.2685957,-4.092923,8.113463,-0.6743947,-0.5674934,0.18157956,17.00625,15.918751,-26.868752,watch_1
15095558446151,-3.2685957,-4.092923,8.113463,-0.71349007,-0.6664535,0.21578798,17.00625,15.918751,-26.868752,watch_1
15095583143651,-3.2685957,-4.092923,8.113463,-0.71349007,-0.6664535,0.21578798,17.1,13.931251,-26.081251,watch_1
15095582482922,-3.1776686,-4.4135613,8.046464,-0.64751667,-0.70677054,0.23655738,17.1,13.931251,-26.081251,watch_1
15095577520162,-3.1776686,-4.4135613,8.046464,-0.64751667,-0.70677054,0.23655738,17.1,13.931251,-26.081251,watch_1
15095593143599,-3.1776686,-4.4135613,8.046464,-0.64751667,-0.70677054,0.23655738,18.6,16.518751,-25.275002,watch_1
15095603143547,-3.1776686,-4.4135613,8.046464,-0.64751667,-0.70677054,0.23655738,20.0625,16.44375,-26.118752,watch_1
15095601555891,-3.3690944,-4.3848476,8.596813,-0.64751667,-0.70677054,0.23655738,20.0625,16.44375,-26.118752,watch_1
15095596593130,-3.3690944,-4.3848476,8.596813,-0.64385146,-0.7336486,0.22189663,18.88125,16.743752,-27.018751,watch_1
15095613143495,-3.3690944,-4.3848476,8.596813,-0.64385146,-0.7336486,0.22189663,18.88125,16.743752,-27.018751,watch_1
15095623143443,-3.3690944,-4.3848476,8.596813,-0.64385146,-0.7336486,0.22189663,19.650002,16.987501,-27.243752,watch_1
15095620629901,-3.4121652,-4.298706,8.692527,-0.64385146,-0.7336486,0.22189663,19.650002,16.987501,-27.243752,watch_1
15095615667141,-3.4121652,-4.298706,8.692527,-0.7892373,-0.8045089,0.18402301,16.6875,18.2625,-25.66875,watch_1
15095633143391,-3.4121652,-4.298706,8.692527,-0.7892373,-0.8045089,0.18402301,16.6875,18.2625,-25.66875,watch_1
15095643143339,-3.4121652,-4.298706,8.692527,-0.7892373,-0.8045089,0.18402301,19.5375,15.656251,-25.66875,watch_1
15095634740162,-3.211168,-4.3992043,8.252247,-0.90774506,-0.89002997,0.16936226,19.5375,15.656251,-25.66875,watch_1
15095639702922,-3.211168,-4.3992043,8.252247,-0.90774506,-0.89002997,0.16936226,19.5375,15.656251,-25.66875,watch_1
15095653143287,-3.211168,-4.3992043,8.252247,-0.90774506,-0.89002997,0.16936226,16.275002,16.125,-27.2625,watch_1
15095663143235,-3.211168,-4.3992043,8.252247,-0.90774506,-0.89002997,0.16936226,16.275002,16.125,-27.2625,watch_1
15095658776880,-2.981457,-4.499703,7.902895,-0.88819736,-0.9291253,0.17791437,16.275002,16.125,-27.2625,watch_1
15095653814120,-2.981457,-4.499703,7.902895,-0.88819736,-0.9291253,0.17791437,16.275002,16.125,-27.2625,watch_1
15095673143182,-2.981457,-4.499703,7.902895,-0.88819736,-0.9291253,0.17791437,17.0625,15.843751,-23.212502,watch_1
15095683143130,-2.981457,-4.499703,7.902895,-0.88819736,-0.9291253,0.17791437,17.962502,16.143751,-24.88125,watch_1
15095672857141,-2.914458,-4.7485566,8.060822,-0.84177166,-0.93523395,0.17302746,17.962502,16.143751,-24.88125,watch_1
15095677819901,-2.914458,-4.7485566,8.060822,-0.84177166,-0.93523395,0.17302746,17.962502,16.143751,-24.88125,watch_1
15095693143078,-2.914458,-4.7485566,8.060822,-0.84177166,-0.93523395,0.17302746,16.143751,17.325,-25.500002,watch_1
15095703143026,-2.914458,-4.7485566,8.060822,-0.84177166,-0.93523395,0.17302746,15.993751,17.1375,-24.337502,watch_1
15095696892922,-2.914458,-4.9256253,8.429316,-0.85398895,-0.93889916,0.16081016,15.993751,17.1375,-24.337502,watch_1
15095691930162,-2.914458,-4.9256253,8.429316,-0.85398895,-0.93889916,0.16081016,15.993751,17.1375,-24.337502,watch_1
15095713142974,-2.914458,-4.9256253,8.429316,-0.85398895,-0.93889916,0.16081016,15.450001,17.643751,-24.6,watch_1
15095723142922,-2.914458,-4.9256253,8.429316,-0.85398895,-0.93889916,0.16081016,15.13125,18.712502,-23.868752,watch_1
15095715966880,-2.8809586,-4.7676992,8.635098,-0.85398895,-0.93889916,0.16081016,15.13125,18.712502,-23.868752,watch_1
15095711004120,-2.8809586,-4.7676992,8.635098,-0.98593575,-0.9437861,0.1339321,15.13125,18.712502,-23.868752,watch_1
15095733142870,-2.8809586,-4.7676992,8.635098,-0.98593575,-0.9437861,0.1339321,17.081251,20.41875,-25.25625,watch_1
15095743142818,-2.8809586,-4.7676992,8.635098,-0.98593575,-0.9437861,0.1339321,17.8125,16.893751,-21.7875,watch_1
15095735039901,-2.8666015,-4.959125,8.807382,-0.98593575,-0.9437861,0.1339321,17.8125,16.893751,-21.7875,watch_1
15095730077141,-2.8666015,-4.959125,8.807382,-1.205847,-1.0146464,0.08994984,17.8125,16.893751,-21.7875,watch_1
15095753142766,-2.8666015,-4.959125,8.807382,-1.205847,-1.0146464,0.08994984,15.900001,18.6375,-22.1625,watch_1
15095763142714,-2.8666015,-4.959125,8.807382,-1.205847,-1.0146464,0.08994984,13.425,19.800001,-25.181252,watch_1
15095754113912,-2.7996025,-5.3276196,8.816954,-1.205847,-1.0146464,0.08994984,13.425,19.800001,-25.181252,watch_1
15095749151151,-2.7996025,-5.3276196,8.816954,-1.4135411,-1.0867285,0.03375028,13.425,19.800001,-25.181252,watch_1
15095773142662,-2.7996025,-5.3276196,8.816954,-1.4135411,-1.0867285,0.03375028,13.106251,20.71875,-24.0,watch_1
15095773186880,-2.6416762,-5.265406,9.041879,-1.4135411,-1.0867285,0.03375028,13.106251,20.71875,-24.0,watch_1
15095768224120,-2.6416762,-5.265406,9.041879,-1.689652,-1.0830632,-0.041996952,13.106251,20.71875,-24.0,watch_1
15095783142610,-2.6416762,-5.265406,9.041879,-1.689652,-1.0830632,-0.041996952,13.968751,21.487501,-21.9375,watch_1
15095793142557,-2.7086751,-5.4999027,9.041879,-2.109927,-1.1478149,-0.12873976,12.7875,23.38125,-24.581251,watch_1
15095787298130,-2.7086751,-5.4999027,9.041879,-2.109927,-1.1478149,-0.12873976,12.7875,23.38125,-24.581251,watch_1
15095792260891,-2.7086751,-5.4999027,9.041879,-2.109927,-1.1478149,-0.12873976,12.7875,23.38125,-24.581251,watch_1
15095803142505,-2.7086751,-5.4999027,9.041879,-2.109927,-1.1478149,-0.12873976,13.481251,24.16875,-24.300001,watch_1
15095813142453,-2.7086751,-5.4999027,9.041879,-2.109927,-1.1478149,-0.12873976,13.293751,23.550001,-22.650002,watch_1
15095811333912,-2.5842485,-6.1603217,8.888738,-2.109927,-1.1478149,-0.12873976,13.293751,23.550001,-22.650002,watch_1
15095806371151,-2.5842485,-6.1603217,8.888738,-2.398255,-1.3225223,-0.17883067,13.556251,24.093752,-20.212502,watch_1
15095823142401,-2.5842485,-6.1603217,8.888738,-2.398255,-1.3225223,-0.17883067,13.556251,24.093752,-20.212502,watch_1
15095833142349,-2.5842485,-6.1603217,8.888738,-2.398255,-1.3225223,-0.17883067,11.90625,24.16875,-20.400002,watch_1
15095830407922,-2.292324,-7.031309,8.907881,-2.398255,-1.3225223,-0.17883067,11.90625,24.16875,-20.400002,watch_1
15095825445162,-2.292324,-7.031309,8.907881,-2.4630067,-1.3994912,-0.29367325,11.90625,24.16875,-20.400002,watch_1
15095843142297,-2.292324,-7.031309,8.907881,-2.4630067,-1.3994912,-0.29367325,11.25,24.768751,-19.518751,watch_1
15095853142245,-2.292324,-7.031309,8.907881,-2.4630067,-1.3994912,-0.29367325,11.493751,23.737501,-16.63125,watch_1
15095849480891,-2.3306093,-7.59123,9.2285185,-2.4630067,-1.3994912,-0.29367325,11.493751,23.737501,-16.63125,watch_1
15095844518130,-2.3306093,-7.59123,9.2285185,-2.7794347,-1.3909391,-0.48670653,11.025001,26.531252,-17.550001,watch_1
15095863142193,-2.3306093,-7.59123,9.2285185,-2.7794347,-1.3909391,-0.48670653,11.025001,26.531252,-17.550001,watch_1
15095873142141,-2.3306093,-7.59123,9.2285185,-2.7794347,-1.3909391,-0.48670653,11.175,25.9125,-14.56875,watch_1
15095863561151,-2.455036,-7.1270223,9.151948,-3.6627452,-1.4104868,-0.7005092,11.175,25.9125,-14.56875,watch_1
15095868523912,-2.455036,-7.1270223,9.151948,-3.6627452,-1.4104868,-0.7005092,11.175,25.9125,-14.56875,watch_1
15095883142089,-2.455036,-7.1270223,9.151948,-3.6627452,-1.4104868,-0.7005092,9.75,27.843752,-14.043751,watch_1
15095893142037,-2.455036,-7.1270223,9.151948,-3.6627452,-1.4104868,-0.7005092,9.450001,27.45,-11.418751,watch_1
15095887597922,-2.4263222,-6.4905314,6.3858457,-3.6627452,-1.4104868,-0.7005092,9.450001,27.45,-11.418751,watch_1
15095882635162,-2.4263222,-6.4905314,6.3858457,-4.653568,-1.5460987,-0.88499033,9.450001,27.45,-11.418751,watch_1
15095903141985,-2.4263222,-6.4905314,6.3858457,-4.653568,-1.5460987,-0.88499033,10.2375,30.056252,-9.4125,watch_1
15095913141932,-2.4263222,-6.4905314,6.3858457,-4.653568,-1.5460987,-0.88499033,9.28125,27.581251,-5.34375,watch_1
15095906670891,-2.143969,-8.88814,4.2514477,-4.653568,-1.5460987,-0.88499033,9.28125,27.581251,-5.34375,watch_1
15095901708130,-2.143969,-8.88814,4.2514477,-4.7146544,-1.576642,-0.994946,9.28125,27.581251,-5.34375,watch_1
15095923141880,-2.143969,-8.88814,4.2514477,-4.7146544,-1.576642,-0.994946,9.993751,28.35,-4.33125,watch_1
15095933141828,-1.875973,-12.664014,3.6149569,-4.7146544,-1.576642,-0.994946,7.9687505,28.7625,-3.0,watch_1
15095920781151,-1.875973,-12.664014,3.6149569,-4.4263263,-1.4129303,-1.2551744,5.1937504,32.4,-4.6875,watch_1
15095943141776,-1.875973,-12.664014,3.6149569,-4.4263263,-1.4129303,-1.2551744,5.1937504,32.4,-4.6875,watch_1
15095925743912,-1.875973,-12.664014,3.6149569,-4.4263263,-1.4129303,-1.2551744,5.1937504,32.4,-4.6875,watch_1
15095953141724,-1.875973,-12.664014,3.6149569,-4.4263263,-1.4129303,-1.2551744,6.4687505,31.06875,-1.06875,watch_1
15095944817922,-1.4739788,-14.55913,3.3517463,-4.4263263,-1.4129303,-1.2551744,6.4687505,31.06875,-1.06875,watch_1
15095939855162,-1.4739788,-14.55913,3.3517463,-4.2491755,-1.2370012,-1.7426445,6.4687505,31.06875,-1.06875,watch_1
15095963141672,-1.4739788,-14.55913,3.3517463,-4.2491755,-1.2370012,-1.7426445,5.45625,30.862501,2.325,watch_1
15095973141620,-1.4739788,-14.55913,3.3517463,-4.2491755,-1.2370012,-1.7426445,5.3250003,29.23125,5.08125,watch_1
15095958928130,-1.4739788,-14.55913,3.3517463,-3.898539,-1.1062762,-2.2264495,5.3250003,29.23125,5.08125,watch_1
15095963890891,-0.7848458,-14.3054905,2.8540392,-3.898539,-1.1062762,-2.2264495,5.3250003,29.23125,5.08125,watch_1
15095983141568,-0.7848458,-14.3054905,2.8540392,-3.898539,-1.1062762,-2.2264495,2.2875001,30.112501,4.65,watch_1
15095993141516,-0.7848458,-14.3054905,2.8540392,-3.898539,-1.1062762,-2.2264495,2.60625,31.725,4.6687503,watch_1
15095982964901,-0.4211368,-13.238292,2.3084757,-3.898539,-1.1062762,-2.2264495,2.60625,31.725,4.6687503,watch_1
15095978002141,-0.4211368,-13.238292,2.3084757,-3.4794858,-1.0341941,-2.4976733,2.60625,31.725,4.6687503,watch_1
15096003141464,-0.4211368,-13.238292,2.3084757,-3.4794858,-1.0341941,-2.4976733,1.9875001,32.41875,7.4437504,watch_1
15095997075162,0.12921242,-12.33859,1.1455638,-3.1007497,-0.9792162,-2.7713408,1.9875001,32.41875,7.4437504,watch_1
15096002037922,0.12921242,-12.33859,1.1455638,-3.1007497,-0.9792162,-2.7713408,1.9875001,32.41875,7.4437504,watch_1
15096013141412,0.12921242,-12.33859,1.1455638,-3.1007497,-0.9792162,-2.7713408,-0.056250002,31.612501,6.1125,watch_1
15096023141360,0.12921242,-12.33859,1.1455638,-3.1007497,-0.9792162,-2.7713408,-3.0187502,30.187502,8.25,watch_1
15096016149120,0.12921242,-12.33859,1.1455638,-2.5595233,-0.82405657,-3.0889904,-3.0187502,30.187502,8.25,watch_1
15096021111880,0.6029913,-11.625529,-0.06520442,-2.5595233,-0.82405657,-3.0889904,-3.73125,30.375002,8.868751,watch_1
15096033141307,0.6029913,-11.625529,-0.06520442,-2.5595233,-0.82405657,-3.0889904,-3.73125,30.375002,8.868751,watch_1
15096043141255,0.6029913,-11.625529,-0.06520442,-2.5595233,-0.82405657,-3.0889904,-3.24375,30.393751,10.51875,watch_1
15096040184901,0.8470592,-10.563115,-0.75912297,-1.6505567,-0.6530144,-3.262476,-3.24375,30.393751,10.51875,watch_1
15096035222141,0.8470592,-10.563115,-0.75912297,-1.6505567,-0.6530144,-3.262476,-3.24375,30.393751,10.51875,watch_1
15096053141203,0.8470592,-10.563115,-0.75912297,-1.6505567,-0.6530144,-3.262476,-5.71875,29.98125,8.83125,watch_1
15096063141151,0.8470592,-10.563115,-0.75912297,-1.6505567,-0.6530144,-3.262476,-8.71875,29.7,10.25625,watch_1
15096059227922,1.1724831,-8.82114,0.116650105,-1.6505567,-0.6530144,-3.262476,-8.71875,29.7,10.25625,watch_1
15096054265162,1.1724831,-8.82114,0.116650105,-0.8161153,-0.48319405,-3.4151924,-8.71875,29.7,10.25625,watch_1
15096073141099,1.1724831,-8.82114,0.116650105,-0.8161153,-0.48319405,-3.4151924,-10.5,28.1625,11.212501,watch_1
15096083141047,1.1724831,-8.82114,0.116650105,-0.8161153,-0.48319405,-3.4151924,-10.5,28.1625,11.212501,watch_1
15096078301880,2.1104696,-6.1698933,1.1264212,-0.42760533,-0.43432486,-3.461618,-10.5,28.1625,11.212501,watch_1
15096073339120,2.1104696,-6.1698933,1.1264212,-0.42760533,-0.43432486,-3.461618,-10.5,28.1625,11.212501,watch_1
15096093140995,2.1104696,-6.1698933,1.1264212,-0.42760533,-0.43432486,-3.461618,-9.431251,28.29375,12.056251,watch_1
15096103140943,2.1104696,-6.1698933,1.1264212,-0.42760533,-0.43432486,-3.461618,-12.225,28.95,10.650001,watch_1
15096097374901,3.0723844,-3.5569308,1.9686948,-0.42760533,-0.43432486,-3.461618,-12.225,28.95,10.650001,watch_1
15096092412141,3.0723844,-3.5569308,1.9686948,-0.29565856,-0.45875946,-3.20872,-12.225,28.95,10.650001,watch_1
15096113140891,3.0723844,-3.5569308,1.9686948,-0.29565856,-0.45875946,-3.20872,-12.431251,28.0125,13.200001,watch_1
15096123140839,3.0723844,-3.5569308,1.9686948,-0.29565856,-0.45875946,-3.20872,-11.90625,22.78125,15.806251,watch_1
15096111486151,3.6849468,-2.7481568,2.801397,-0.46914417,-0.48808095,-2.7383542,-11.90625,22.78125,15.806251,watch_1
15096116448912,3.6849468,-2.7481568,2.801397,-0.46914417,-0.48808095,-2.7383542,-11.90625,22.78125,15.806251,watch_1
15096133140787,3.6849468,-2.7481568,2.801397,-0.46914417,-0.48808095,-2.7383542,-12.356251,25.706251,15.168751,watch_1
15096143140735,3.6849468,-2.7481568,2.801397,-0.46914417,-0.48808095,-2.7383542,-14.19375,26.60625,15.3,watch_1
15096135521880,3.8333018,-2.082952,2.5956144,-0.46914417,-0.48808095,-2.7383542,-14.19375,26.60625,15.3,watch_1
15096130559120,3.8333018,-2.082952,2.5956144,-0.85398895,-0.49296787,-2.2130103,-14.19375,26.60625,15.3,watch_1
15096153140682,3.8333018,-2.082952,2.5956144,-0.85398895,-0.49296787,-2.2130103,-13.575001,23.8125,17.25,watch_1
15096163140630,3.8333018,-2.082952,2.5956144,-0.85398895,-0.49296787,-2.2130103,-17.60625,23.868752,16.2,watch_1
15096154595891,3.5988052,-2.3940191,1.7676977,-0.85398895,-0.49296787,-2.2130103,-17.60625,23.868752,16.2,watch_1
15096149633130,3.5988052,-2.3940191,1.7676977,-0.90530163,-0.5100721,-1.5483896,-17.60625,23.868752,16.2,watch_1
15096173140578,3.5988052,-2.3940191,1.7676977,-0.90530163,-0.5100721,-1.5483896,-16.66875,25.5375,16.575,watch_1
15096183140526,3.5988052,-2.3940191,1.7676977,-0.90530163,-0.5100721,-1.5483896,-16.81875,25.687502,15.975,watch_1
15096173668912,3.5509489,-2.193022,0.85842514,-0.6377428,-0.5564978,-0.7640391,-16.81875,25.687502,15.975,watch_1
15096168706151,3.5509489,-2.193022,0.85842514,-0.6377428,-0.5564978,-0.7640391,-16.81875,25.687502,15.975,watch_1
15096193140474,3.5509489,-2.193022,0.85842514,-0.6377428,-0.5564978,-0.7640391,-14.606251,25.237501,17.4375,watch_1
15096192742922,3.9720855,-0.9870393,0.85842514,-0.02443459,-0.6004801,0.09605849,-14.606251,25.237501,17.4375,watch_1
15096187780162,3.9720855,-0.9870393,0.85842514,-0.02443459,-0.6004801,0.09605849,-14.606251,25.237501,17.4375,watch_1
15096203140422,3.9720855,-0.9870393,0.85842514,-0.02443459,-0.6004801,0.09605849,-16.743752,23.400002,17.212502,watch_1
15096213140370,3.9720855,-0.9870393,0.85842514,-0.02443459,-0.6004801,0.09605849,-17.0625,23.362501,16.893751,watch_1
15096211815891,3.9194436,0.104087785,0.887139,-0.02443459,-0.6004801,0.09605849,-17.0625,23.362501,16.893751,watch_1
15096223140318,3.9194436,0.104087785,0.887139,0.49357873,-0.64324063,1.0673335,-16.331251,24.45,17.15625,watch_1
15096206853130,3.9194436,0.104087785,0.887139,0.49357873,-0.64324063,1.0673335,-16.331251,24.45,17.15625,watch_1
15096233140266,3.9194436,0.104087785,0.887139,0.49357873,-0.64324063,1.0673335,-12.618751,24.0375,18.7875,watch_1
15096230889901,3.4360933,1.262214,0.9924232,0.4300488,-0.6139191,2.022726,-12.618751,24.0375,18.7875,watch_1
15096225927141,3.4360933,1.262214,0.9924232,0.4300488,-0.6139191,2.022726,-12.618751,24.0375,18.7875,watch_1
15096243140214,3.4360933,1.262214,0.9924232,0.4300488,-0.6139191,2.022726,-14.606251,25.237501,16.837502,watch_1
15096253140162,3.4360933,1.262214,0.9924232,0.4300488,-0.6139191,2.022726,-12.01875,27.150002,16.237501,watch_1
15096249932922,2.3258235,1.3196417,0.9493524,0.4300488,-0.6139191,2.022726,-12.01875,27.150002,16.237501,watch_1
15096244970162,2.3258235,1.3196417,0.9493524,-0.106290475,-0.56138474,2.9866707,-11.512501,29.062502,15.656251,watch_1
15096263140110,2.3258235,1.3196417,0.9493524,-0.106290475,-0.56138474,2.9866707,-11.512501,29.062502,15.656251,watch_1
15096273140057,2.3258235,1.3196417,0.9493524,-0.106290475,-0.56138474,2.9866707,-10.14375,27.806252,16.3875,watch_1
15096269005891,0.9619147,-0.2883351,-0.27098715,-0.106290475,-0.56138474,2.9866707,-10.14375,27.806252,16.3875,watch_1
15096264043130,0.9619147,-0.2883351,-0.27098715,-0.90530163,-0.61025393,3.843103,-10.14375,27.806252,16.3875,watch_1
15096283140005,0.9619147,-0.2883351,-0.27098715,-0.90530163,-0.61025393,3.843103,-7.4625,30.4125,16.425001,watch_1
15096293139953,0.9619147,-0.2883351,-0.27098715,-0.90530163,-0.61025393,3.843103,-5.86875,29.737501,18.5625,watch_1
15096283117141,-0.05742774,-5.2893343,-3.5012977,-1.7250822,-0.65790135,4.4588547,-5.86875,29.737501,18.5625,watch_1
15096288079901,-0.05742774,-5.2893343,-3.5012977,-1.7250822,-0.65790135,4.4588547,-5.86875,29.737501,18.5625,watch_1
15096303139901,-0.05742774,-5.2893343,-3.5012977,-1.7250822,-0.65790135,4.4588547,-4.6312504,28.612501,18.825,watch_1
15096313139849,-0.05742774,-5.2893343,-3.5012977,-1.7250822,-0.65790135,4.4588547,-2.9250002,31.95,18.54375,watch_1
15096307152922,-0.51206404,-9.830912,-5.051847,-1.7250822,-0.65790135,4.4588547,-2.9250002,31.95,18.54375,watch_1
15096302190162,-0.51206404,-9.830912,-5.051847,-2.4385722,-0.43554658,4.628675,-2.9250002,31.95,18.54375,watch_1
15096323139797,-0.51206404,-9.830912,-5.051847,-2.4385722,-0.43554658,4.628675,-1.6875001,28.143751,19.35,watch_1
15096333139745,-0.51206404,-9.830912,-5.051847,-2.4385722,-0.43554658,4.628675,0.056250002,30.6375,18.581251,watch_1
15096321264120,-1.0911272,-13.3435755,-6.018547,-2.841743,-0.16676609,4.5309367,0.056250002,30.6375,18.581251,watch_1
15096326226880,-1.0911272,-13.3435755,-6.018547,-2.841743,-0.16676609,4.5309367,0.056250002,30.6375,18.581251,watch_1
15096343139693,-1.0911272,-13.3435755,-6.018547,-2.841743,-0.16676609,4.5309367,2.0812502,29.587502,20.94375,watch_1
15096353139641,-1.0911272,-13.3435755,-6.018547,-2.841743,-0.16676609,4.5309367,3.825,27.16875,24.88125,watch_1
15096345299901,-0.2632105,-12.994224,-6.4492555,-2.841743,-0.16676609,4.5309367,3.825,27.16875,24.88125,watch_1
15096363139589,-0.2632105,-12.994224,-6.4492555,-4.254062,-0.115453444,4.105775,5.25,26.19375,26.437502,watch_1
15096340337141,-0.2632105,-12.994224,-6.4492555,-4.254062,-0.115453444,4.105775,5.25,26.19375,26.437502,watch_1
15096373139537,-0.2632105,-12.994224,-6.4492555,-4.254062,-0.115453444,4.105775,5.3625,22.44375,30.750002,watch_1
15096364373912,-0.31106696,-8.419147,-5.961119,-4.254062,-0.115453444,4.105775,5.3625,22.44375,30.750002,watch_1
15096359411151,-0.31106696,-8.419147,-5.961119,-6.224712,-0.116675176,3.6012006,5.3625,22.44375,30.750002,watch_1
15096383139485,-0.31106696,-8.419147,-5.961119,-6.224712,-0.116675176,3.6012006,7.7250004,19.48125,31.743752,watch_1
15096393139432,-0.31106696,-8.419147,-5.961119,-6.224712,-0.116675176,3.6012006,8.0625,18.225,32.925003,watch_1
15096378484120,-3.9338005,-11.663814,-9.468997,-8.140384,-0.3329213,3.0245442,8.0625,18.225,32.925003,watch_1
15096383446880,-3.9338005,-11.663814,-9.468997,-8.140384,-0.3329213,3.0245442,8.0625,18.225,32.925003,watch_1
15096403139380,-3.9338005,-11.663814,-9.468997,-8.140384,-0.3329213,3.0245442,7.1625004,15.243751,33.84375,watch_1
15096402520891,-2.833102,-20.622541,-17.987446,-8.140384,-0.3329213,3.0245442,7.1625004,15.243751,33.84375,watch_1
15096397558130,-2.833102,-20.622541,-17.987446,-9.044464,-0.22174391,1.9530874,7.1625004,15.243751,33.84375,watch_1
15096413139328,-2.833102,-20.622541,-17.987446,-9.044464,-0.22174391,1.9530874,9.525001,11.6625,37.66875,watch_1
15096423139276,-2.833102,-20.622541,-17.987446,-9.044464,-0.22174391,1.9530874,9.356251,8.793751,38.5125,watch_1
15096433139224,-2.833102,-20.622541,-17.987446,-6.256477,0.22174391,0.915839,7.8375,7.2000003,37.7625,watch_1
15096416631151,-2.833102,-20.622541,-17.987446,-6.256477,0.22174391,0.915839,7.8375,7.2000003,37.7625,watch_1
15096421593912,1.268196,-23.264217,-21.232113,-6.256477,0.22174391,0.915839,7.8375,7.2000003,37.7625,watch_1
15096443139172,1.268196,-23.264217,-21.232113,-6.256477,0.22174391,0.915839,9.975,7.4437504,39.0,watch_1
15096440636880,0.76570326,-15.999609,-18.470797,-6.256477,0.22174391,0.915839,9.975,7.4437504,39.0,watch_1
15096435674120,0.76570326,-15.999609,-18.470797,-1.3756675,0.6334668,-0.14828743,9.975,7.4437504,39.0,watch_1
15096453139120,0.76570326,-15.999609,-18.470797,-1.3756675,0.6334668,-0.14828743,7.2375,6.9375005,39.600002,watch_1
15096463139068,0.76570326,-15.999609,-18.470797,-1.3756675,0.6334668,-0.14828743,7.3125005,9.09375,38.53125,watch_1
15096459710891,2.3353949,-12.960724,-16.05883,-1.3756675,0.6334668,-0.14828743,7.3125005,9.09375,38.53125,watch_1
15096454748130,2.3353949,-12.960724,-16.05883,1.1862994,1.273653,-1.0071633,6.61875,12.4125,37.8375,watch_1
15096473139016,2.3353949,-12.960724,-16.05883,1.1862994,1.273653,-1.0071633,6.61875,12.4125,37.8375,watch_1
15096483138964,2.3353949,-12.960724,-16.05883,1.1862994,1.273653,-1.0071633,6.1687503,12.337501,38.381252,watch_1
15096478783912,2.536392,-13.716856,-14.5513525,2.1221442,1.9724823,-1.7243185,6.1687503,12.337501,38.381252,watch_1
15096473821151,2.536392,-13.716856,-14.5513525,2.1221442,1.9724823,-1.7243185,6.1687503,12.337501,38.381252,watch_1
15096493138912,2.536392,-13.716856,-14.5513525,2.1221442,1.9724823,-1.7243185,4.8,12.168751,37.65,watch_1
15096503138860,2.536392,-13.716856,-14.5513525,2.1221442,1.9724823,-1.7243185,2.68125,11.887501,37.725002,watch_1
15096497857922,1.2346965,-11.96531,-12.215958,3.0970845,2.4220788,-2.4646866,2.68125,11.887501,37.725002,watch_1
15096492895162,1.2346965,-11.96531,-12.215958,3.0970845,2.4220788,-2.4646866,2.68125,11.887501,37.725002,watch_1
15096513138807,1.2346965,-11.96531,-12.215958,3.0970845,2.4220788,-2.4646866,0.0375,15.39375,36.206253,watch_1
15096523138755,1.2346965,-11.96531,-12.215958,3.0970845,2.4220788,-2.4646866,0.31875002,16.59375,35.4,watch_1
15096516930891,-0.10049855,-9.787841,-9.349357,4.223519,2.6456554,-3.0657775,0.31875002,16.59375,35.4,watch_1
15096511968130,-0.10049855,-9.787841,-9.349357,4.223519,2.6456554,-3.0657775,0.31875002,16.59375,35.4,watch_1
15096533138703,-0.10049855,-9.787841,-9.349357,4.223519,2.6456554,-3.0657775,-2.775,18.7875,32.49375,watch_1
15096543138651,-0.10049855,-9.787841,-9.349357,4.223519,2.6456554,-3.0657775,-3.3000002,19.575,32.2125,watch_1
15096536003912,-1.1724831,-8.361719,-5.00399,5.718916,2.5784602,-3.3822055,-3.3000002,19.575,32.2125,watch_1
15096531041151,-1.1724831,-8.361719,-5.00399,5.718916,2.5784602,-3.3822055,-3.3000002,19.575,32.2125,watch_1
15096553138599,-1.1724831,-8.361719,-5.00399,5.718916,2.5784602,-3.3822055,-4.875,20.71875,29.025002,watch_1
15096563138547,-1.1724831,-8.361719,-5.00399,5.718916,2.5784602,-3.3822055,-6.5062504,23.962502,26.625002,watch_1
15096555077922,-1.8568304,-6.792027,-0.7160522,5.718916,2.5784602,-3.3822055,-6.5062504,23.962502,26.625002,watch_1
15096550115162,-1.8568304,-6.792027,-0.7160522,7.341373,2.15452,-3.5727954,-6.5062504,23.962502,26.625002,watch_1
15096573138495,-1.8568304,-6.792027,-0.7160522,7.341373,2.15452,-3.5727954,-8.212501,25.218752,23.25,watch_1
15096583138443,-1.8568304,-6.792027,-0.7160522,7.341373,2.15452,-3.5727954,-9.95625,26.04375,20.925001,watch_1
15096569188130,-1.9908284,-3.4995031,1.3944174,8.108619,1.4532473,-3.5361435,-9.95625,26.04375,20.925001,watch_1
15096574150891,-1.9908284,-3.4995031,1.3944174,8.108619,1.4532473,-3.5361435,-9.95625,26.04375,20.925001,watch_1
15096593138391,-1.9908284,-3.4995031,1.3944174,8.108619,1.4532473,-3.5361435,-10.837501,27.937502,19.331251,watch_1
15096593224901,-0.7752745,-0.5802595,1.2029916,8.108619,1.4532473,-3.5361435,-10.837501,27.937502,19.331251,watch_1
15096588262141,-0.7752745,-0.5802595,1.2029916,7.731105,0.6664535,-3.1036513,-10.837501,27.937502,19.331251,watch_1
15096603138339,-0.7752745,-0.5802595,1.2029916,7.731105,0.6664535,-3.1036513,-11.962501,28.987501,16.63125,watch_1
15096613138287,-0.7752745,-0.5802595,1.2029916,7.731105,0.6664535,-3.1036513,-12.50625,28.875002,12.375001,watch_1
15096612297922,1.18684,-0.025124637,-0.21834506,6.6645346,0.33047783,-2.3559527,-12.50625,28.875002,12.375001,watch_1
15096607335162,1.18684,-0.025124637,-0.21834506,6.6645346,0.33047783,-2.3559527,-12.50625,28.875002,12.375001,watch_1
15096623138235,1.18684,-0.025124637,-0.21834506,6.6645346,0.33047783,-2.3559527,-13.125001,31.650002,10.425,watch_1
15096633138182,1.18684,-0.025124637,-0.21834506,6.6645346,0.33047783,-2.3559527,-14.981251,29.8875,8.925,watch_1
15096626378130,1.18684,-0.025124637,-0.21834506,5.376832,0.43676832,-1.3370303,-13.9875,29.775002,7.0312505,watch_1
15096643138130,1.18684,-0.025124637,-0.21834506,5.376832,0.43676832,-1.3370303,-13.9875,29.775002,7.0312505,watch_1
15096631340891,2.3401806,-1.1641082,0.10229317,5.376832,0.43676832,-1.3370303,-13.9875,29.775002,7.0312505,watch_1
15096653138078,2.3401806,-1.1641082,0.10229317,5.376832,0.43676832,-1.3370303,-15.431251,30.487501,5.34375,watch_1
15096650414901,2.6273193,0.21415763,2.035694,5.376832,0.43676832,-1.3370303,-15.431251,30.487501,5.34375,watch_1
15096645452141,2.6273193,0.21415763,2.035694,3.9400778,0.57971066,-0.3046688,-14.306251,31.66875,3.3187501,watch_1
15096663138026,2.6273193,0.21415763,2.035694,3.9400778,0.57971066,-0.3046688,-14.306251,31.66875,3.3187501,watch_1
15096673137974,2.6273193,0.21415763,2.035694,3.9400778,0.57971066,-0.3046688,-14.325001,31.687502,2.2875001,watch_1
15096669487922,2.981457,3.7363925,4.6295137,3.9400778,0.57971066,-0.3046688,-14.325001,31.687502,2.2875001,watch_1
15096664525162,2.981457,3.7363925,4.6295137,2.4813328,0.6346885,0.82176584,-14.325001,31.687502,2.2875001,watch_1
15096683137922,2.981457,3.7363925,4.6295137,2.4813328,0.6346885,0.82176584,-12.20625,31.968752,1.7812501,watch_1
15096693137870,2.981457,3.7363925,4.6295137,2.4813328,0.6346885,0.82176584,-12.20625,31.968752,1.7812501,watch_1
15096688561880,2.9718857,4.7988057,5.256433,0.59498227,0.6139191,1.8651229,-12.20625,31.968752,1.7812501,watch_1
15096683599120,2.9718857,4.7988057,5.256433,0.59498227,0.6139191,1.8651229,-12.20625,31.968752,1.7812501,watch_1
15096703137818,2.9718857,4.7988057,5.256433,0.59498227,0.6139191,1.8651229,-12.075001,33.28125,0.93750006,watch_1
15096713137766,2.9718857,4.7988057,5.256433,0.59498227,0.6139191,1.8651229,-11.775001,33.0,2.4562502,watch_1
15096702672141,2.507678,0.9846465,3.4713874,-1.364672,0.40133816,2.686125,-11.775001,33.0,2.4562502,watch_1
15096707634901,2.507678,0.9846465,3.4713874,-1.364672,0.40133816,2.686125,-11.775001,33.0,2.4562502,watch_1
15096723137714,2.507678,0.9846465,3.4713874,-1.364672,0.40133816,2.686125,-9.375,34.125,4.0687504,watch_1
15096733137662,2.507678,0.9846465,3.4713874,-1.364672,0.40133816,2.686125,-8.512501,33.65625,5.1000004,watch_1
15096726708912,1.9812572,-6.141179,1.2125629,-1.364672,0.40133816,2.686125,-8.512501,33.65625,5.1000004,watch_1
15096721746151,1.9812572,-6.141179,1.2125629,-2.2296565,0.09957096,3.323868,-8.512501,33.65625,5.1000004,watch_1
15096743137610,1.9812572,-6.141179,1.2125629,-2.2296565,0.09957096,3.323868,-6.80625,34.443752,4.6312504,watch_1
15096740819120,1.9812572,-6.141179,1.2125629,-2.1209226,-0.05070178,3.450928,-5.11875,33.225002,5.6625004,watch_1
15096753137557,1.9812572,-6.141179,1.2125629,-2.1209226,-0.05070178,3.450928,-5.11875,33.225002,5.6625004,watch_1
15096745781880,1.4644074,-11.237891,0.54735816,-2.1209226,-0.05070178,3.450928,-5.11875,33.225002,5.6625004,watch_1
15096763137505,1.4644074,-11.237891,0.54735816,-2.1209226,-0.05070178,3.450928,-4.3125,33.600002,6.8812504,watch_1
15096773137453,1.4644074,-11.237891,0.54735816,-2.1209226,-0.05070178,3.450928,-2.6437502,33.46875,9.28125,watch_1
15096759893130,0.72263247,-13.678571,1.3992031,-2.0182972,-0.26083925,3.1125088,-2.6437502,33.46875,9.28125,watch_1
15096764855891,0.72263247,-13.678571,1.3992031,-2.0182972,-0.26083925,3.1125088,-2.6437502,33.46875,9.28125,watch_1
15096783137401,0.72263247,-13.678571,1.3992031,-2.0182972,-0.26083925,3.1125088,-1.7812501,34.575,8.981251,watch_1
15096793137349,0.72263247,-13.678571,1.3992031,-2.0182972,-0.26083925,3.1125088,-1.3312501,33.075,9.168751,watch_1
15096783928912,1.0336994,-14.042279,-1.2233306,-2.0182972,-0.26083925,3.1125088,-1.3312501,33.075,9.168751,watch_1
15096778966151,1.0336994,-14.042279,-1.2233306,-3.1166322,-0.5100721,2.5627306,-1.3312501,33.075,9.168751,watch_1
15096803137297,1.0336994,-14.042279,-1.2233306,-3.1166322,-0.5100721,2.5627306,-0.112500004,34.162502,12.543751,watch_1
15096813137245,3.1441689,-13.664214,-6.497112,-3.1166322,-0.5100721,2.5627306,1.29375,34.125,15.618751,watch_1
15096803002922,3.1441689,-13.664214,-6.497112,-3.1166322,-0.5100721,2.5627306,1.29375,34.125,15.618751,watch_1
15096798040162,3.1441689,-13.664214,-6.497112,-4.730537,-0.6725621,2.0349433,1.29375,34.125,15.618751,watch_1
15096823137193,3.1441689,-13.664214,-6.497112,-4.730537,-0.6725621,2.0349433,0.01875,32.287502,14.19375,watch_1
15096817083130,3.1441689,-13.664214,-6.497112,-5.437918,-0.59559315,1.5034909,0.01875,32.287502,14.19375,watch_1
15096833137141,3.1441689,-13.664214,-6.497112,-5.437918,-0.59559315,1.5034909,1.66875,29.812502,21.16875,watch_1
15096822045891,4.900501,-14.520844,-8.913862,-5.437918,-0.59559315,1.5034909,1.48125,28.237501,20.71875,watch_1
15096843137089,4.900501,-14.520844,-8.913862,-5.437918,-0.59559315,1.5034909,1.48125,28.237501,20.71875,watch_1
15096836156151,4.900501,-14.520844,-8.913862,-4.4373217,-0.16554436,0.8205441,1.48125,28.237501,20.71875,watch_1
15096841118912,3.3690944,-17.248663,-5.319843,-4.4373217,-0.16554436,0.8205441,2.9625,27.656252,24.0,watch_1
15096853137037,3.3690944,-17.248663,-5.319843,-4.4373217,-0.16554436,0.8205441,2.9625,27.656252,24.0,watch_1
15096863136985,3.3690944,-17.248663,-5.319843,-4.4373217,-0.16554436,0.8205441,2.98125,27.6375,24.581251,watch_1
15096860192922,-0.19621146,-21.34996,-3.2237303,-4.4373217,-0.16554436,0.8205441,2.98125,27.6375,24.581251,watch_1
15096855230162,-0.19621146,-21.34996,-3.2237303,-2.5326455,0.056810424,-0.31566438,-0.01875,26.268751,23.79375,watch_1
15096873136932,-0.19621146,-21.34996,-3.2237303,-2.5326455,0.056810424,-0.31566438,-0.01875,26.268751,23.79375,watch_1
15096883136880,-0.19621146,-21.34996,-3.2237303,-2.5326455,0.056810424,-0.31566438,0.93750006,26.812502,24.0,watch_1
15096879265891,2.5842485,-21.20639,-5.2193446,-0.7024945,-0.18509203,-1.7084361,0.93750006,26.812502,24.0,watch_1
15096874303130,2.5842485,-21.20639,-5.2193446,-0.7024945,-0.18509203,-1.7084361,0.93750006,26.812502,24.0,watch_1
15096893136828,2.5842485,-21.20639,-5.2193446,-0.7024945,-0.18509203,-1.7084361,0.112500004,26.475,22.2,watch_1
15096903136776,2.5842485,-21.20639,-5.2193446,-0.7024945,-0.18509203,-1.7084361,-0.6,27.91875,22.837502,watch_1
15096898339901,5.0536413,-15.38226,-5.453841,1.689652,-0.3243692,-2.5135558,-0.6,27.91875,22.837502,watch_1
15096893377141,5.0536413,-15.38226,-5.453841,1.689652,-0.3243692,-2.5135558,-0.6,27.91875,22.837502,watch_1
15096913136724,5.0536413,-15.38226,-5.453841,1.689652,-0.3243692,-2.5135558,-0.58125,29.643751,21.806252,watch_1
15096923136672,5.0536413,-15.38226,-5.453841,1.689652,-0.3243692,-2.5135558,-3.1312501,28.331251,21.6375,watch_1
15096912450162,4.9866424,-10.6684,-5.343771,3.0066764,-0.18631376,-3.0767732,-3.1312501,28.331251,21.6375,watch_1
15096917412922,4.9866424,-10.6684,-5.343771,3.0066764,-0.18631376,-3.0767732,-3.1312501,28.331251,21.6375,watch_1
15096933136620,4.9866424,-10.6684,-5.343771,3.0066764,-0.18631376,-3.0767732,-2.5875,29.75625,17.775002,watch_1
15096943136568,4.9866424,-10.6684,-5.343771,3.0066764,-0.18631376,-3.0767732,-4.65,30.056252,17.8125,watch_1
15096931524120,5.2163534,-8.711071,-4.8412786,2.9089382,0.051923506,-3.4970481,-4.65,30.056252,17.8125,watch_1
15096936486880,5.2163534,-8.711071,-4.8412786,2.9089382,0.051923506,-3.4970481,-4.65,30.056252,17.8125,watch_1
15096953136516,5.2163534,-8.711071,-4.8412786,2.9089382,0.051923506,-3.4970481,-6.39375,29.60625,15.31875,watch_1
15096955559901,5.6614184,-7.600801,-3.9080775,2.9089382,0.051923506,-3.4970481,-6.3187504,30.31875,14.83125,watch_1
15096963136464,5.6614184,-7.600801,-3.9080775,2.9089382,0.051923506,-3.4970481,-6.3187504,30.31875,14.83125,watch_1
15096950597141,5.6614184,-7.600801,-3.9080775,2.809978,0.216857,-3.7071857,-6.3187504,30.31875,14.83125,watch_1
15096973136412,5.6614184,-7.600801,-3.9080775,2.809978,0.216857,-3.7071857,-7.89375,30.975,14.437501,watch_1
15096983136360,5.6614184,-7.600801,-3.9080775,2.809978,0.216857,-3.7071857,-11.493751,29.85,12.093751,watch_1
15096974633912,6.4558353,-6.672386,-4.3292146,3.555233,0.2046397,-3.7536113,-11.625,28.85625,11.606251,watch_1
15096993136307,6.4558353,-6.672386,-4.3292146,3.555233,0.2046397,-3.7536113,-11.625,28.85625,11.606251,watch_1
15096969671151,6.4558353,-6.672386,-4.3292146,3.555233,0.2046397,-3.7536113,-11.625,28.85625,11.606251,watch_1
15097003136255,6.4558353,-6.672386,-4.3292146,3.555233,0.2046397,-3.7536113,-13.012501,29.98125,10.6125,watch_1
15096993706880,8.226524,-4.782056,-5.712266,3.555233,0.2046397,-3.7536113,-13.012501,29.98125,10.6125,watch_1
15096988744120,8.226524,-4.782056,-5.712266,4.82461,0.18509203,-3.7670503,-13.012501,29.98125,10.6125,watch_1
15097013136203,8.226524,-4.782056,-5.712266,4.82461,0.18509203,-3.7670503,-14.887501,29.812502,7.0687504,watch_1
15097007787141,8.226524,-4.782056,-5.712266,5.4745703,0.37690356,-3.610669,-16.29375,28.25625,4.875,watch_1
15097023136151,8.226524,-4.782056,-5.712266,5.4745703,0.37690356,-3.610669,-16.29375,28.25625,4.875,watch_1
15097012749901,9.853643,-2.2408783,-5.803193,5.4745703,0.37690356,-3.610669,-16.29375,28.25625,4.875,watch_1
15097033136099,9.853643,-2.2408783,-5.803193,5.4745703,0.37690356,-3.610669,-18.675001,27.45,1.7812501,watch_1
15097031823912,10.777273,-0.95832545,-5.7840505,5.4745703,0.37690356,-3.610669,-18.675001,27.45,1.7812501,watch_1
15097026861151,10.777273,-0.95832545,-5.7840505,5.0359693,0.6884446,-3.3284495,-18.675001,27.45,1.7812501,watch_1
15097043136047,10.777273,-0.95832545,-5.7840505,5.0359693,0.6884446,-3.3284495,-16.6875,29.437502,0.20625001,watch_1
15097053135995,10.777273,-0.95832545,-5.7840505,5.0359693,0.6884446,-3.3284495,-20.268751,28.462502,-1.7062501,watch_1
15097050896880,8.863015,-1.719243,-5.0566325,5.0359693,0.6884446,-3.3284495,-20.268751,28.462502,-1.7062501,watch_1
15097045934120,8.863015,-1.719243,-5.0566325,3.8960955,1.2101232,-2.900844,-20.268751,28.462502,-1.7062501,watch_1
15097063135943,8.863015,-1.719243,-5.0566325,3.8960955,1.2101232,-2.900844,-19.5375,27.16875,-2.9437501,watch_1
15097073135891,8.863015,-1.719243,-5.0566325,3.8960955,1.2101232,-2.900844,-20.41875,27.975,-6.61875,watch_1
15097069970891,3.3212378,-3.001796,-3.5347972,2.7000222,2.2009459,-2.517221,-20.41875,27.975,-6.61875,watch_1
15097065008130,3.3212378,-3.001796,-3.5347972,2.7000222,2.2009459,-2.517221,-20.41875,27.975,-6.61875,watch_1
15097083135839,3.3212378,-3.001796,-3.5347972,2.7000222,2.2009459,-2.517221,-22.2,28.2,-7.425,watch_1
15097093135787,3.3212378,-3.001796,-3.5347972,2.7000222,2.2009459,-2.517221,-21.825,24.843752,-7.2000003,watch_1
15097089043912,2.143969,-2.9252257,-0.5102694,2.7000222,2.2009459,-2.517221,-21.825,24.843752,-7.2000003,watch_1
15097084081151,2.143969,-2.9252257,-0.5102694,1.5344924,3.25652,-2.1934626,-21.825,24.843752,-7.2000003,watch_1
15097103135735,2.143969,-2.9252257,-0.5102694,1.5344924,3.25652,-2.1934626,-21.300001,25.968752,-9.8625,watch_1
15097113135682,2.143969,-2.9252257,-0.5102694,1.5344924,3.25652,-2.1934626,-22.650002,24.50625,-9.150001,watch_1
15097108117922,-22.305893,-27.260231,30.96492,-0.37140578,1.5082251,-2.0468552,-22.650002,24.50625,-9.150001,watch_1
15097123135630,-22.305893,-27.260231,30.96492,-0.37140578,1.5082251,-2.0468552,-23.268751,23.962502,-7.5750003,watch_1
15097103155162,-22.305893,-27.260231,30.96492,-0.37140578,1.5082251,-2.0468552,-22.650002,24.50625,-9.150001,watch_1
15097133135578,-22.305893,-27.260231,30.96492,-0.37140578,1.5082251,-2.0468552,-25.406252,22.612501,-10.293751,watch_1
15097127190891,6.943971,-7.160522,-9.497711,1.7263038,0.618806,-1.81717,-25.406252,22.612501,-10.293751,watch_1
15097122228130,6.943971,-7.160522,-9.497711,1.7263038,0.618806,-1.81717,-25.406252,22.612501,-10.293751,watch_1
15097143135526,6.943971,-7.160522,-9.497711,1.7263038,0.618806,-1.81717,-24.431252,23.925001,-13.06875,watch_1
15097153135474,6.943971,-7.160522,-9.497711,1.7263038,0.618806,-1.81717,-24.431252,23.925001,-13.06875,watch_1
15097146263912,6.135197,9.445667,14.420944,1.7263038,0.618806,-1.81717,-24.431252,23.925001,-13.06875,watch_1
15097141301151,6.135197,9.445667,14.420944,2.5900667,-0.32559094,-0.7701478,-24.431252,23.925001,-13.06875,watch_1
15097163135422,6.135197,9.445667,14.420944,2.5900667,-0.32559094,-0.7701478,-25.44375,21.375,-12.656251,watch_1
15097173135370,-6.728617,-18.34936,13.262817,2.5900667,-0.32559094,-0.7701478,-26.531252,23.643751,-12.262501,watch_1
15097165337922,-6.728617,-18.34936,13.262817,2.5900667,-0.32559094,-0.7701478,-26.531252,23.643751,-12.262501,watch_1
15097160375162,-6.728617,-18.34936,13.262817,-0.9798271,-1.4459169,-1.067028,-26.531252,23.643751,-12.262501,watch_1
15097183135318,-6.728617,-18.34936,13.262817,-0.9798271,-1.4459169,-1.067028,-27.300001,23.23125,-11.306251,watch_1
15097193135266,-6.728617,-18.34936,13.262817,-0.9798271,-1.4459169,-1.067028,-26.437502,22.743752,-9.4125,watch_1
15097184410891,4.1491547,-7.5146594,6.079564,1.4856231,-1.0989457,-0.87643826,-26.437502,22.743752,-9.4125,watch_1
15097179448130,4.1491547,-7.5146594,6.079564,1.4856231,-1.0989457,-0.87643826,-26.437502,22.743752,-9.4125,watch_1
15097203135214,4.1491547,-7.5146594,6.079564,1.4856231,-1.0989457,-0.87643826,-27.562502,21.09375,-12.13125,watch_1
15097213135162,6.4366927,0.12323037,3.112464,2.8478515,-1.1209369,-0.54290605,-26.681252,20.75625,-11.137501,watch_1
15097203453912,6.4366927,0.12323037,3.112464,2.8478515,-1.1209369,-0.54290605,-26.681252,20.75625,-11.137501,watch_1
15097198491151,6.4366927,0.12323037,3.112464,2.8478515,-1.1209369,-0.54290605,-26.681252,20.75625,-11.137501,watch_1
15097223135110,6.518049,-4.485346,3.2799616,2.8478515,-1.1209369,-0.54290605,-27.50625,21.525002,-11.587501,watch_1
15097222527922,6.518049,-4.485346,3.2799616,1.8289292,-1.4422518,-0.07009673,-27.50625,21.525002,-11.587501,watch_1
15097217565162,6.518049,-4.485346,3.2799616,1.8289292,-1.4422518,-0.07009673,-27.937502,18.2625,-8.118751,watch_1
15097233135057,6.518049,-4.485346,3.2799616,1.8289292,-1.4422518,-0.07009673,-28.63125,19.21875,-9.900001,watch_1
15097241600891,6.135197,-6.7585278,2.653042,1.8289292,-1.4422518,-0.07009673,-28.63125,19.21875,-9.900001,watch_1
15097253134953,6.135197,-6.7585278,2.653042,1.4196497,-1.5033382,0.0056504994,-26.41875,17.19375,-7.70625,watch_1
15097263134901,6.135197,-6.7585278,2.653042,1.4196497,-1.5033382,0.0056504994,-26.41875,17.19375,-7.70625,watch_1
15097243135005,6.135197,-6.7585278,2.653042,1.4196497,-1.5033382,0.0056504994,-26.41875,17.19375,-7.70625,watch_1
15097236638130,6.963114,-3.9541395,2.2175484,1.4196497,-1.5033382,0.0056504994,-26.41875,17.19375,-7.70625,watch_1
15097260674901,6.963114,-3.9541395,2.2175484,1.6468915,-1.4825689,-0.06520981,-26.41875,17.19375,-7.70625,watch_1
15097255712141,6.963114,-3.9541395,2.2175484,1.6468915,-1.4825689,-0.06520981,-26.1,16.893751,-5.15625,watch_1
15097273134849,6.963114,-3.9541395,2.2175484,1.6468915,-1.4825689,-0.06520981,-26.1,16.893751,-5.15625,watch_1
15097283134797,6.963114,-3.9541395,2.2175484,1.6468915,-1.4825689,-0.06520981,-27.4125,15.093751,-8.19375,watch_1
15097279747922,7.7623167,-2.7098715,1.5571294,1.3426808,-1.5289946,0.119271345,-25.968752,17.1,-7.3500004,watch_1
15097274785162,7.7623167,-2.7098715,1.5571294,1.3426808,-1.5289946,0.119271345,-25.968752,17.1,-7.3500004,watch_1
15097293134745,7.7623167,-2.7098715,1.5571294,1.3426808,-1.5289946,0.119271345,-25.968752,17.1,-7.3500004,watch_1
15097303134693,7.7623167,-2.7098715,1.5571294,1.3426808,-1.5289946,0.119271345,-26.868752,15.69375,-6.7312503,watch_1
15097298821880,7.5086775,-3.891926,-0.046061836,1.3426808,-1.5289946,0.119271345,-26.868752,15.69375,-6.7312503,watch_1
15097293859120,7.5086775,-3.891926,-0.046061836,0.9138537,-1.4214823,0.24388777,-26.868752,15.69375,-6.7312503,watch_1
15097313134641,7.5086775,-3.891926,-0.046061836,0.9138537,-1.4214823,0.24388777,-27.45,15.918751,-7.1062503,watch_1
15097323134589,7.5086775,-3.891926,-0.046061836,0.9138537,-1.4214823,0.24388777,-28.518751,17.38125,-9.84375,watch_1
15097317894901,7.9298143,-3.418147,-1.2855439,0.9138537,-1.4214823,0.24388777,-28.518751,17.38125,-9.84375,watch_1
15097312932141,7.9298143,-3.418147,-1.2855439,0.77457654,-1.2345577,0.27931792,-28.518751,17.38125,-9.84375,watch_1
15097333134537,7.9298143,-3.418147,-1.2855439,0.77457654,-1.2345577,0.27931792,-27.843752,17.7,-7.18125,watch_1
15097343134485,7.9298143,-3.418147,-1.2855439,0.77457654,-1.2345577,0.27931792,-28.95,17.306252,-8.587501,watch_1
15097336968912,8.595019,-3.0927234,-2.7882366,0.77457654,-1.2345577,0.27931792,-28.95,17.306252,-8.587501,watch_1
15097332006151,8.595019,-3.0927234,-2.7882366,0.59498227,-1.0024291,0.29153523,-28.95,17.306252,-8.587501,watch_1
15097353134432,8.595019,-3.0927234,-2.7882366,0.59498227,-1.0024291,0.29153523,-28.781252,17.456251,-8.137501,watch_1
15097363134380,8.595019,-3.0927234,-2.7882366,0.59498227,-1.0024291,0.29153523,-28.575,19.800001,-10.668751,watch_1
15097356041880,10.0163555,-3.4037902,-5.386842,0.59498227,-1.0024291,0.29153523,-28.575,19.800001,-10.668751,watch_1
15097351079120,10.0163555,-3.4037902,-5.386842,0.22479823,-0.7470876,0.31230462,-28.575,19.800001,-10.668751,watch_1
15097373134328,10.0163555,-3.4037902,-5.386842,0.22479823,-0.7470876,0.31230462,-28.800001,20.175001,-9.431251,watch_1
15097383134276,10.0163555,-3.4037902,-5.386842,0.22479823,-0.7470876,0.31230462,-27.975,19.40625,-8.681251,watch_1
15097375115891,10.485349,-3.662215,-8.344371,-0.36896232,-0.24129158,0.3074177,-27.975,19.40625,-8.681251,watch_1
15097370153130,10.485349,-3.662215,-8.344371,-0.36896232,-0.24129158,0.3074177,-27.975,19.40625,-8.681251,watch_1
15097393134224,10.485349,-3.662215,-8.344371,-0.36896232,-0.24129158,0.3074177,-27.656252,18.337502,-9.4125,watch_1
15097403134172,10.485349,-3.662215,-8.344371,-0.36896232,-0.24129158,0.3074177,-27.69375,20.56875,-7.89375,watch_1
15097389196151,10.485349,-3.662215,-8.344371,-0.9969313,0.64568406,0.2829831,-27.69375,20.56875,-7.89375,watch_1
15097394158912,9.614362,-4.3848476,-10.383056,-0.9969313,0.64568406,0.2829831,-27.69375,20.56875,-7.89375,watch_1
15097413134120,9.614362,-4.3848476,-10.383056,-0.9969313,0.64568406,0.2829831,-28.875002,19.425001,-8.64375,watch_1
15097408269120,9.614362,-4.3848476,-10.383056,-1.6139047,1.770897,0.12660173,-28.875002,19.425001,-8.64375,watch_1
15097423134068,9.614362,-4.3848476,-10.383056,-1.6139047,1.770897,0.12660173,-28.556252,19.462502,-7.8750005,watch_1
15097413231880,10.030712,-3.824927,-10.560124,-1.6139047,1.770897,0.12660173,-28.556252,19.462502,-7.8750005,watch_1
15097433134016,10.030712,-3.824927,-10.560124,-1.6139047,1.770897,0.12660173,-28.593752,19.5,-9.918751,watch_1
15097443133964,10.030712,-3.824927,-10.560124,-1.6139047,1.770897,0.12660173,-27.993752,20.868752,-10.425,watch_1
15097432305891,9.174082,-3.7770705,-7.6983085,-2.1294746,2.9584181,0.009315688,-27.993752,20.868752,-10.425,watch_1
15097427343130,9.174082,-3.7770705,-7.6983085,-2.1294746,2.9584181,0.009315688,-27.993752,20.868752,-10.425,watch_1
15097453133912,9.174082,-3.7770705,-7.6983085,-2.1294746,2.9584181,0.009315688,-26.681252,20.75625,-10.837501,watch_1
15097446416151,5.3312087,-5.9210396,-1.7306089,-2.1441355,3.9871144,0.03252855,-26.60625,21.50625,-11.925,watch_1
15097451378912,5.3312087,-5.9210396,-1.7306089,-2.1441355,3.9871144,0.03252855,-26.60625,21.50625,-11.925,watch_1
15097463133860,9.174082,-3.7770705,-7.6983085,-2.1441355,3.9871144,0.03252855,-26.60625,21.50625,-11.925,watch_1
15097473133807,5.3312087,-5.9210396,-1.7306089,-2.1441355,3.9871144,0.03252855,-27.6,20.8125,-12.543751,watch_1
15097470452922,-15.582061,-16.741385,37.640896,-2.258978,2.5589125,-0.0016798781,-27.6,20.8125,-12.543751,watch_1
15097483133755,-15.582061,-16.741385,37.640896,-2.258978,2.5589125,-0.0016798781,-25.312502,22.368752,-11.71875,watch_1
15097465490162,-15.582061,-16.741385,37.640896,-2.258978,2.5589125,-0.0016798781,-25.312502,22.368752,-11.71875,watch_1
15097493133703,-15.582061,-16.741385,37.640896,-2.258978,2.5589125,-0.0016798781,-27.31875,21.993752,-12.7875,watch_1
15097489525891,7.288538,-12.233306,1.5714862,-2.258978,2.5589125,-0.0016798781,-27.31875,21.993752,-12.7875,watch_1
15097484563130,7.288538,-12.233306,1.5714862,0.7831286,1.0341941,0.29764387,-26.85,21.243752,-14.83125,watch_1
15097503133651,7.288538,-12.233306,1.5714862,0.7831286,1.0341941,0.29764387,-26.85,21.243752,-14.83125,watch_1
15097513133599,7.288538,-12.233306,1.5714862,0.7831286,1.0341941,0.29764387,-27.300001,22.44375,-14.137501,watch_1
15097508599901,13.19881,9.522238,16.785053,1.5589269,-0.03848448,0.24388777,-27.300001,22.44375,-14.137501,watch_1
15097503637141,13.19881,9.522238,16.785053,1.5589269,-0.03848448,0.24388777,-27.300001,22.44375,-14.137501,watch_1
15097523133547,13.19881,9.522238,16.785053,1.5589269,-0.03848448,0.24388777,-24.525002,23.23125,-14.025001,watch_1
15097533133495,13.19881,9.522238,16.785053,1.5589269,-0.03848448,0.24388777,-25.48125,23.00625,-16.0125,watch_1
15097527672922,-0.22492532,-15.176477,18.273388,-0.5534435,-1.2308925,0.38072148,-25.48125,23.00625,-16.0125,watch_1
15097522710162,-0.22492532,-15.176477,18.273388,-0.5534435,-1.2308925,0.38072148,-25.48125,23.00625,-16.0125,watch_1
15097543133443,-0.22492532,-15.176477,18.273388,-0.5534435,-1.2308925,0.38072148,-24.6,22.181252,-11.606251,watch_1
15097553133391,-0.22492532,-15.176477,18.273388,-0.5534435,-1.2308925,0.38072148,-25.518751,20.8125,-12.900001,watch_1
15097541784120,5.6183476,-7.816155,9.625728,1.8606942,-1.1563671,0.028863361,-25.518751,20.8125,-12.900001,watch_1
15097546746880,5.6183476,-7.816155,9.625728,1.8606942,-1.1563671,0.028863361,-25.518751,20.8125,-12.900001,watch_1
15097563133339,5.6183476,-7.816155,9.625728,1.8606942,-1.1563671,0.028863361,-24.468752,22.3875,-13.8,watch_1
15097573133287,5.6183476,-7.816155,9.625728,1.8606942,-1.1563671,0.028863361,-26.775002,20.56875,-15.187501,watch_1
15097565819901,9.312865,-0.015553347,5.433502,1.8606942,-1.1563671,0.028863361,-26.775002,20.56875,-15.187501,watch_1
15097560857141,9.312865,-0.015553347,5.433502,2.7110178,-1.0952805,0.047189303,-26.775002,20.56875,-15.187501,watch_1
15097583133235,9.312865,-0.015553347,5.433502,2.7110178,-1.0952805,0.047189303,-25.44375,18.69375,-12.525001,watch_1
15097593133182,9.312865,-0.015553347,5.433502,2.7110178,-1.0952805,0.047189303,-26.831251,19.48125,-11.45625,watch_1
15097584862922,8.384451,-3.6574295,7.137192,2.7110178,-1.0952805,0.047189303,-26.831251,19.48125,-11.45625,watch_1
15097579900162,8.384451,-3.6574295,7.137192,1.1985167,-1.3713914,0.25243986,-26.831251,19.48125,-11.45625,watch_1
15097603133130,8.384451,-3.6574295,7.137192,1.1985167,-1.3713914,0.25243986,-24.69375,21.16875,-11.53125,watch_1
15097613133078,8.384451,-3.6574295,7.137192,1.1985167,-1.3713914,0.25243986,-24.7875,18.712502,-9.4125,watch_1
15097603936880,6.245267,-7.3806615,5.6823554,1.1985167,-1.3713914,0.25243986,-24.7875,18.712502,-9.4125,watch_1
15097598974120,6.245267,-7.3806615,5.6823554,0.3420843,-1.5326598,0.23655738,-24.7875,18.712502,-9.4125,watch_1
15097623133026,6.245267,-7.3806615,5.6823554,0.3420843,-1.5326598,0.23655738,-24.2625,19.35,-9.4125,watch_1
15097633132974,6.245267,-7.3806615,5.6823554,0.3420843,-1.5326598,0.23655738,-24.975,18.09375,-8.212501,watch_1
15097623009901,7.460821,-5.21755,3.2991042,0.3420843,-1.5326598,0.23655738,-24.975,18.09375,-8.212501,watch_1
15097618047141,7.460821,-5.21755,3.2991042,0.38240135,-1.5974114,0.00320704,-24.975,18.09375,-8.212501,watch_1
15097643132922,7.460821,-5.21755,3.2991042,0.38240135,-1.5974114,0.00320704,-26.493752,19.800001,-11.45625,watch_1
15097637121151,7.460821,-5.21755,3.2991042,0.39584038,-1.5522074,0.027641632,-27.206251,18.73125,-11.4375,watch_1
15097653132870,7.460821,-5.21755,3.2991042,0.39584038,-1.5522074,0.027641632,-27.206251,18.73125,-11.4375,watch_1
15097642083912,7.9298143,-3.81057,1.2364911,0.39584038,-1.5522074,0.027641632,-27.206251,18.73125,-11.4375,watch_1
15097663132818,7.9298143,-3.81057,1.2364911,0.39584038,-1.5522074,0.027641632,-26.56875,18.75,-9.31875,watch_1
15097661156880,7.9920278,-4.7916274,0.0065802624,0.39584038,-1.5522074,0.027641632,-26.56875,18.75,-9.31875,watch_1
15097656194120,7.9920278,-4.7916274,0.0065802624,0.42760533,-1.4764602,0.14737113,-26.362501,17.94375,-9.356251,watch_1
15097673132766,7.9920278,-4.7916274,0.0065802624,0.42760533,-1.4764602,0.14737113,-26.362501,17.94375,-9.356251,watch_1
15097683132714,7.9920278,-4.7916274,0.0065802624,0.42760533,-1.4764602,0.14737113,-28.893751,19.462502,-10.387501,watch_1
15097675268130,7.542177,-5.332405,-0.5054838,0.7855721,-1.291979,0.16814053,-28.893751,19.462502,-10.387501,watch_1
15097680230891,7.542177,-5.332405,-0.5054838,0.7855721,-1.291979,0.16814053,-28.893751,19.462502,-10.387501,watch_1
15097693132662,7.542177,-5.332405,-0.5054838,0.7855721,-1.291979,0.16814053,-25.743752,19.59375,-10.03125,watch_1
15097703132610,7.542177,-5.332405,-0.5054838,0.7855721,-1.291979,0.16814053,-27.2625,19.06875,-8.26875,watch_1
15097699303912,7.5996046,-4.447061,-0.92183495,1.00304,-1.1123848,0.14737113,-27.2625,19.06875,-8.26875,watch_1
15097694341151,7.5996046,-4.447061,-0.92183495,1.00304,-1.1123848,0.14737113,-27.225,17.925001,-7.5750003,watch_1
15097713132557,7.5996046,-4.447061,-0.92183495,1.00304,-1.1123848,0.14737113,-27.225,17.925001,-7.5750003,watch_1
15097723132505,7.5996046,-4.447061,-0.92183495,1.00304,-1.1123848,0.14737113,-26.94375,19.087502,-7.2187505,watch_1
15097718377922,7.9776707,-3.891926,-1.6971095,1.00304,-1.1123848,0.14737113,-26.94375,19.087502,-7.2187505,watch_1
15097733132453,7.9776707,-3.891926,-1.6971095,0.8100067,-0.92179495,0.16081016,-26.00625,19.81875,-9.075001,watch_1
15097713415162,7.9776707,-3.891926,-1.6971095,0.8100067,-0.92179495,0.16081016,-26.00625,19.81875,-9.075001,watch_1
15097743132401,7.9776707,-3.891926,-1.6971095,0.8100067,-0.92179495,0.16081016,-30.206251,20.025002,-11.45625,watch_1
15097737450891,8.647661,-4.1982074,-3.3720853,0.8100067,-0.92179495,0.16081016,-30.206251,20.025002,-11.45625,watch_1
15097732488130,8.647661,-4.1982074,-3.3720853,0.41905323,-0.6872229,0.18646647,-30.206251,20.025002,-11.45625,watch_1
15097753132349,8.647661,-4.1982074,-3.3720853,0.41905323,-0.6872229,0.18646647,-26.718752,18.581251,-8.45625,watch_1
15097763132297,8.647661,-4.1982074,-3.3720853,0.41905323,-0.6872229,0.18646647,-29.175001,19.3875,-8.6625,watch_1
15097756524901,10.0881405,-4.126423,-5.8271213,0.41905323,-0.6872229,0.18646647,-29.175001,19.3875,-8.6625,watch_1
15097751562141,10.0881405,-4.126423,-5.8271213,-0.12217296,-0.45265082,0.1876882,-29.175001,19.3875,-8.6625,watch_1
15097773132245,10.0881405,-4.126423,-5.8271213,-0.12217296,-0.45265082,0.1876882,-26.493752,19.462502,-9.09375,watch_1
15097783132193,10.0881405,-4.126423,-5.8271213,-0.12217296,-0.45265082,0.1876882,-26.962502,20.362501,-7.7812505,watch_1
15097775566880,11.188839,-4.853841,-9.78485,-0.12217296,-0.45265082,0.1876882,-26.962502,20.362501,-7.7812505,watch_1
15097770604120,11.188839,-4.853841,-9.78485,-0.8918626,0.04459313,0.10583232,-26.962502,20.362501,-7.7812505,watch_1
15097793132141,11.188839,-4.853841,-9.78485,-0.8918626,0.04459313,0.10583232,-28.893751,19.125,-7.5937505,watch_1
15097803132089,11.188839,-4.853841,-9.78485,-0.8918626,0.04459313,0.10583232,-28.575,19.1625,-7.55625,watch_1
15097794640891,10.408778,-5.6530433,-12.15853,-2.0977097,1.020755,-0.09453133,-28.575,19.1625,-7.55625,watch_1
15097789678130,10.408778,-5.6530433,-12.15853,-2.0977097,1.020755,-0.09453133,-28.575,19.1625,-7.55625,watch_1
15097813132037,10.408778,-5.6530433,-12.15853,-2.0977097,1.020755,-0.09453133,-26.531252,21.73125,-9.31875,watch_1
15097823131985,10.408778,-5.6530433,-12.15853,-2.0977097,1.020755,-0.09453133,-28.3875,21.1875,-8.75625,watch_1
15097808751151,10.408778,-5.6530433,-12.15853,-3.0335546,2.3683228,-0.24846925,-28.3875,21.1875,-8.75625,watch_1
15097813713912,8.394022,-5.992824,-11.081759,-3.0335546,2.3683228,-0.24846925,-28.3875,21.1875,-8.75625,watch_1
15097833131932,8.394022,-5.992824,-11.081759,-3.0335546,2.3683228,-0.24846925,-27.675001,20.868752,-8.925,watch_1
15097832787922,5.5274205,-5.4233327,-7.478169,-3.0335546,2.3683228,-0.24846925,-27.675001,20.868752,-8.925,watch_1
15097827825162,5.5274205,-5.4233327,-7.478169,-2.8356342,3.763538,-0.31077746,-26.550001,21.431252,-8.56875,watch_1
15097843131880,5.5274205,-5.4233327,-7.478169,-2.8356342,3.763538,-0.31077746,-26.550001,21.431252,-8.56875,watch_1
15097853131828,5.5274205,-5.4233327,-7.478169,-2.8356342,3.763538,-0.31077746,-27.243752,23.79375,-11.0625,watch_1
15097846898130,5.5274205,-5.4233327,-7.478169,-2.3371687,4.8582077,-0.35231626,-27.243752,23.79375,-11.0625,watch_1
15097863131776,5.5274205,-5.4233327,-7.478169,-2.3371687,4.8582077,-0.35231626,-26.5125,22.03125,-9.637501,watch_1
15097851860891,3.8333018,-5.279763,-3.0227332,-2.3371687,4.8582077,-0.35231626,-26.5125,22.03125,-9.637501,watch_1
15097873131724,3.8333018,-5.279763,-3.0227332,-2.3371687,4.8582077,-0.35231626,-25.3875,23.23125,-12.975,watch_1
15097883131672,-22.784458,-15.434902,20.28336,-2.6780312,2.1129813,-0.09575305,-27.6,21.91875,-11.34375,watch_1
15097870934901,-22.784458,-15.434902,20.28336,-2.6780312,2.1129813,-0.09575305,-27.6,21.91875,-11.34375,watch_1
15097865972141,-22.784458,-15.434902,20.28336,-2.6780312,2.1129813,-0.09575305,-27.6,21.91875,-11.34375,watch_1
15097893131620,-22.784458,-15.434902,20.28336,-2.6780312,2.1129813,-0.09575305,-24.91875,22.95,-9.84375,watch_1
15097890007922,11.997613,-12.199806,7.4769726,-2.6780312,2.1129813,-0.09575305,-24.91875,22.95,-9.84375,watch_1
15097885045162,11.997613,-12.199806,7.4769726,1.6163481,1.206458,-0.041996952,-24.91875,22.95,-9.84375,watch_1
15097903131568,11.997613,-12.199806,7.4769726,1.6163481,1.206458,-0.041996952,-24.393751,21.525002,-12.825001,watch_1
15097913131516,11.997613,-12.199806,7.4769726,1.6163481,1.206458,-0.041996952,-27.13125,23.71875,-13.218751,watch_1
15097909081880,11.519048,12.4319105,12.008979,0.8649845,0.005497783,0.41248643,-27.13125,23.71875,-13.218751,watch_1
15097904119120,11.519048,12.4319105,12.008979,0.8649845,0.005497783,0.41248643,-27.13125,23.71875,-13.218751,watch_1
15097923131464,11.519048,12.4319105,12.008979,0.8649845,0.005497783,0.41248643,-25.968752,20.587502,-11.75625,watch_1
15097933131412,11.519048,12.4319105,12.008979,0.8649845,0.005497783,0.41248643,-23.681252,25.1625,-12.95625,watch_1
15097928154901,-2.4598217,-13.453646,10.76471,-2.3200645,-0.4196641,0.85963947,-23.681252,25.1625,-12.95625,watch_1
15097923192141,-2.4598217,-13.453646,10.76471,-2.3200645,-0.4196641,0.85963947,-23.681252,25.1625,-12.95625,watch_1
15097943131360,-2.4598217,-13.453646,10.76471,-2.3200645,-0.4196641,0.85963947,-26.550001,24.768751,-12.243751,watch_1
15097953131307,-2.4598217,-13.453646,10.76471,-2.3200645,-0.4196641,0.85963947,-25.462502,23.75625,-11.137501,watch_1
15097947228912,6.2404814,-7.5960155,0.18843478,-2.3200645,-0.4196641,0.85963947,-25.462502,23.75625,-11.137501,watch_1
15097942266151,6.2404814,-7.5960155,0.18843478,0.22235478,-0.010384701,0.6849321,-25.462502,23.75625,-11.137501,watch_1
15097963131255,6.2404814,-7.5960155,0.18843478,0.22235478,-0.010384701,0.6849321,-24.187502,23.23125,-12.39375,watch_1
15097973131203,6.2404814,-7.5960155,0.18843478,0.22235478,-0.010384701,0.6849321,-22.725,24.281252,-12.468751,watch_1
15097966271880,10.19821,3.1669009,-0.13220344,0.22235478,-0.010384701,0.6849321,-22.725,24.281252,-12.468751,watch_1
15097961309120,10.19821,3.1669009,-0.13220344,1.7067562,0.5442805,0.811992,-22.725,24.281252,-12.468751,watch_1
15097983131151,10.19821,3.1669009,-0.13220344,1.7067562,0.5442805,0.811992,-23.831251,23.868752,-12.843751,watch_1
15097993131099,10.19821,3.1669009,-0.13220344,1.7067562,0.5442805,0.811992,-23.025002,24.393751,-13.387501,watch_1
15097985344901,4.197011,-1.1880364,4.730012,-0.32009315,0.8949169,1.413083,-23.025002,24.393751,-13.387501,watch_1
15097980382141,4.197011,-1.1880364,4.730012,-0.32009315,0.8949169,1.413083,-23.025002,24.393751,-13.387501,watch_1
15098003131047,4.197011,-1.1880364,4.730012,-0.32009315,0.8949169,1.413083,-22.9125,26.98125,-14.062501,watch_1
15098013130995,4.197011,-1.1880364,4.730012,-0.32009315,0.8949169,1.413083,-21.50625,24.581251,-12.225,watch_1
15097999456151,1.7467605,-8.548359,4.610371,-1.8790201,0.8631519,1.4802781,-21.50625,24.581251,-12.225,watch_1
15098004418912,1.7467605,-8.548359,4.610371,-1.8790201,0.8631519,1.4802781,-21.50625,24.581251,-12.225,watch_1
15098023130943,1.7467605,-8.548359,4.610371,-1.8790201,0.8631519,1.4802781,-22.21875,26.343752,-12.918751,watch_1
15098023491880,4.3740797,-6.5001025,4.1318064,-1.8790201,0.8631519,1.4802781,-20.90625,27.0375,-11.38125,watch_1
15098033130891,4.3740797,-6.5001025,4.1318064,-1.8790201,0.8631519,1.4802781,-20.90625,27.0375,-11.38125,watch_1
15098018529120,4.3740797,-6.5001025,4.1318064,-1.6053526,0.85948676,1.4509566,-20.90625,27.0375,-11.38125,watch_1
15098043130839,4.3740797,-6.5001025,4.1318064,-1.6053526,0.85948676,1.4509566,-21.150002,27.562502,-11.025001,watch_1
15098042565891,4.182654,-4.5427737,4.4093738,-1.6053526,0.85948676,1.4509566,-21.150002,27.562502,-11.025001,watch_1
15098037603130,4.182654,-4.5427737,4.4093738,-2.0024147,0.90835595,1.6708679,-21.150002,27.562502,-11.025001,watch_1
15098053130787,4.182654,-4.5427737,4.4093738,-2.0024147,0.90835595,1.6708679,-20.0625,28.931252,-9.28125,watch_1
15098063130735,4.182654,-4.5427737,4.4093738,-2.0024147,0.90835595,1.6708679,-18.150002,27.843752,-12.3,watch_1
15098056676151,4.182654,-4.5427737,4.4093738,-3.39763,0.81916964,1.9066617,-18.150002,27.843752,-12.3,watch_1
15098073130682,3.6753755,-6.9116683,4.2131624,-3.39763,0.81916964,1.9066617,-17.75625,30.768751,-8.475,watch_1
15098061638912,3.6753755,-6.9116683,4.2131624,-3.39763,0.81916964,1.9066617,-17.75625,30.768751,-8.475,watch_1
15098083130630,3.6753755,-6.9116683,4.2131624,-3.39763,0.81916964,1.9066617,-18.9375,29.643751,-8.793751,watch_1
15098080712922,3.656233,-9.988838,3.6819558,-3.39763,0.81916964,1.9066617,-18.9375,29.643751,-8.793751,watch_1
15098075750162,3.656233,-9.988838,3.6819558,-4.186867,0.7385355,2.1021385,-16.425001,29.85,-3.8625002,watch_1
15098093130578,3.656233,-9.988838,3.6819558,-4.186867,0.7385355,2.1021385,-16.425001,29.85,-3.8625002,watch_1
15098103130526,3.656233,-9.988838,3.6819558,-4.186867,0.7385355,2.1021385,-14.025001,31.312502,-4.18125,watch_1
15098099785891,4.1347976,-11.027323,4.5098724,-4.7586365,0.5235111,2.0874777,-14.025001,31.312502,-4.18125,watch_1
15098094823130,4.1347976,-11.027323,4.5098724,-4.7586365,0.5235111,2.0874777,-14.025001,31.312502,-4.18125,watch_1
15098113130474,4.1347976,-11.027323,4.5098724,-4.7586365,0.5235111,2.0874777,-13.51875,31.29375,-0.76875,watch_1
15098123130422,4.1347976,-11.027323,4.5098724,-4.7586365,0.5235111,2.0874777,-15.31875,29.60625,0.93750006,watch_1
15098118859901,5.852844,-9.893126,4.9310093,-5.583304,0.06169734,2.0105088,-15.31875,29.60625,0.93750006,watch_1
15098133130370,5.852844,-9.893126,4.9310093,-5.583304,0.06169734,2.0105088,-13.8,32.15625,3.0375001,watch_1
15098113897141,5.852844,-9.893126,4.9310093,-5.583304,0.06169734,2.0105088,-13.8,32.15625,3.0375001,watch_1
15098143130318,5.852844,-9.893126,4.9310093,-5.583304,0.06169734,2.0105088,-11.3625,31.63125,9.0375,watch_1
15098137932922,7.135397,-9.55813,4.6295137,-6.346885,-0.50152,1.9885175,-11.3625,31.63125,9.0375,watch_1
15098132970162,7.135397,-9.55813,4.6295137,-6.346885,-0.50152,1.9885175,-11.3625,31.63125,9.0375,watch_1
15098153130266,7.135397,-9.55813,4.6295137,-6.346885,-0.50152,1.9885175,-11.3625,31.63125,9.0375,watch_1
15098163130214,7.135397,-9.55813,4.6295137,-6.346885,-0.50152,1.9885175,-10.950001,31.10625,9.8625,watch_1
15098156975891,6.74776,-8.376076,2.5142584,-6.346885,-0.50152,1.9885175,-10.950001,31.10625,9.8625,watch_1
15098173130162,6.74776,-8.376076,2.5142584,-7.0396056,-1.0586287,1.8040364,-10.25625,29.812502,14.868751,watch_1
15098152013130,6.74776,-8.376076,2.5142584,-7.0396056,-1.0586287,1.8040364,-10.25625,29.812502,14.868751,watch_1
15098183130110,6.74776,-8.376076,2.5142584,-7.0396056,-1.0586287,1.8040364,-8.137501,29.60625,17.456251,watch_1
15098176049901,5.063213,-6.2081785,-2.4580271,-7.398794,-1.4630212,1.4546218,-10.012501,26.868752,21.431252,watch_1
15098171087141,5.063213,-6.2081785,-2.4580271,-7.398794,-1.4630212,1.4546218,-10.012501,26.868752,21.431252,watch_1
15098193130057,5.063213,-6.2081785,-2.4580271,-7.398794,-1.4630212,1.4546218,-10.012501,26.868752,21.431252,watch_1
15098203130005,5.063213,-6.2081785,-2.4580271,-7.398794,-1.4630212,1.4546218,-7.8375,27.4125,22.2,watch_1
15098195122922,2.8761728,-9.127422,-11.967104,-6.2357078,-1.3872739,1.0184643,-7.8375,27.4125,22.2,watch_1
15098190160162,2.8761728,-9.127422,-11.967104,-6.2357078,-1.3872739,1.0184643,-7.8375,27.4125,22.2,watch_1
15098223129901,2.8761728,-9.127422,-11.967104,-6.2357078,-1.3872739,1.0184643,-8.043751,23.79375,24.712502,watch_1
15098213129953,2.8761728,-9.127422,-11.967104,-6.2357078,-1.3872739,1.0184643,-8.043751,23.79375,24.712502,watch_1
15098214196880,2.8426733,-18.253647,-14.264214,-6.2357078,-1.3872739,1.0184643,-8.043751,23.79375,24.712502,watch_1
15098209234120,2.8426733,-18.253647,-14.264214,-2.8087564,-0.8289435,0.68126696,-8.043751,23.79375,24.712502,watch_1
15098233129849,2.8426733,-18.253647,-14.264214,-2.8087564,-0.8289435,0.68126696,-8.19375,25.181252,25.29375,watch_1
15098233269901,5.383851,-20.158335,-10.751551,-2.8087564,-0.8289435,0.68126696,-7.0312505,24.750002,25.612501,watch_1
15098243129797,5.383851,-20.158335,-10.751551,-2.8087564,-0.8289435,0.68126696,-7.0312505,24.750002,25.612501,watch_1
15098228307141,5.383851,-20.158335,-10.751551,1.0152572,-0.21197008,0.025198173,-7.0312505,24.750002,25.612501,watch_1
15098253129745,5.383851,-20.158335,-10.751551,1.0152572,-0.21197008,0.025198173,-7.93125,25.29375,21.975,watch_1
15098252343912,5.8911295,-14.913267,-5.0422754,1.0152572,-0.21197008,0.025198173,-7.93125,25.29375,21.975,watch_1
15098263129693,5.8911295,-14.913267,-5.0422754,4.4165525,0.07880156,-0.6467531,-6.9187503,26.250002,23.15625,watch_1
15098247381151,5.8911295,-14.913267,-5.0422754,4.4165525,0.07880156,-0.6467531,-6.9187503,26.250002,23.15625,watch_1
15098273129641,5.8911295,-14.913267,-5.0422754,4.4165525,0.07880156,-0.6467531,-6.1875005,27.7875,21.1875,watch_1
15098266454120,5.8911295,-14.913267,-5.0422754,5.773894,-0.016493348,-1.0169371,-6.1875005,27.7875,21.1875,watch_1
15098271416880,5.0823555,-10.740185,-0.41455653,5.773894,-0.016493348,-1.0169371,-7.8,28.181252,19.800001,watch_1
15098283129589,5.0823555,-10.740185,-0.41455653,5.773894,-0.016493348,-1.0169371,-7.8,28.181252,19.800001,watch_1
15098293129537,5.0823555,-10.740185,-0.41455653,5.773894,-0.016493348,-1.0169371,-6.525,27.806252,18.54375,watch_1
15098303129485,4.914858,-9.223135,1.1790633,5.1043863,-0.2046397,-1.3797908,-7.9875,28.368752,16.575,watch_1
15098290490891,4.914858,-9.223135,1.1790633,5.1043863,-0.2046397,-1.3797908,-7.9875,28.368752,16.575,watch_1
15098285528130,4.914858,-9.223135,1.1790633,5.1043863,-0.2046397,-1.3797908,-7.9875,28.368752,16.575,watch_1
15098313129432,4.914858,-9.223135,1.1790633,5.1043863,-0.2046397,-1.3797908,-9.712501,31.06875,12.618751,watch_1
15098309563912,4.847859,-10.04148,0.9349955,5.1043863,-0.2046397,-1.3797908,-9.712501,31.06875,12.618751,watch_1
15098304601151,4.847859,-10.04148,0.9349955,4.412887,-0.4062251,-1.6375757,-9.712501,31.06875,12.618751,watch_1
15098323129380,4.847859,-10.04148,0.9349955,4.412887,-0.4062251,-1.6375757,-9.1875,29.156252,12.150001,watch_1
15098328637922,4.9435716,-9.677772,-0.25663024,4.412887,-0.4062251,-1.6375757,-9.01875,32.34375,9.675,watch_1
15098333129328,4.9435716,-9.677772,-0.25663024,4.412887,-0.4062251,-1.6375757,-9.01875,32.34375,9.675,watch_1
15098323675162,4.9435716,-9.677772,-0.25663024,4.2528405,-0.6163626,-1.835496,-9.01875,32.34375,9.675,watch_1
15098343129276,4.9435716,-9.677772,-0.25663024,4.2528405,-0.6163626,-1.835496,-12.0375,31.312502,7.1062503,watch_1
15098353129224,4.9435716,-9.677772,-0.25663024,4.2528405,-0.6163626,-1.835496,-12.543751,30.843752,6.20625,watch_1
15098347680891,5.0105705,-9.266206,0.87278205,4.2528405,-0.6163626,-1.835496,-12.543751,30.843752,6.20625,watch_1
15098342718130,5.0105705,-9.266206,0.87278205,4.357909,-0.6860011,-1.9442298,-12.543751,30.843752,6.20625,watch_1
15098363129172,5.0105705,-9.266206,0.87278205,4.357909,-0.6860011,-1.9442298,-14.343751,29.812502,3.6375,watch_1
15098373129120,5.0105705,-9.266206,0.87278205,4.357909,-0.6860011,-1.9442298,-14.343751,29.812502,3.6375,watch_1
15098361791151,5.0105705,-9.266206,0.87278205,3.5527894,-0.6860011,-2.0932808,-14.343751,29.812502,3.6375,watch_1
15098366753912,4.74736,-6.6915283,2.088336,3.5527894,-0.6860011,-2.0932808,-14.343751,29.812502,3.6375,watch_1
15098383129068,4.74736,-6.6915283,2.088336,3.5527894,-0.6860011,-2.0932808,-14.56875,30.487501,3.8437502,watch_1
15098393129016,4.74736,-6.6915283,2.088336,3.5527894,-0.6860011,-2.0932808,-16.087502,29.19375,2.625,watch_1
15098385826880,4.790431,-3.92064,1.1790633,3.5527894,-0.6860011,-2.0932808,-16.087502,29.19375,2.625,watch_1
15098380864120,4.790431,-3.92064,1.1790633,2.62061,-0.7470876,-2.1409283,-16.087502,29.19375,2.625,watch_1
15098403128964,4.790431,-3.92064,1.1790633,2.62061,-0.7470876,-2.1409283,-15.993751,31.650002,0.50625,watch_1
15098413128912,4.790431,-3.92064,1.1790633,2.62061,-0.7470876,-2.1409283,-18.018751,28.125002,1.0500001,watch_1
15098404900891,4.981857,-4.470989,1.6671991,2.62061,-0.7470876,-2.1409283,-18.018751,28.125002,1.0500001,watch_1
15098399938130,4.981857,-4.470989,1.6671991,1.7886121,-0.7299834,-1.9515603,-18.018751,28.125002,1.0500001,watch_1
15098423128860,4.981857,-4.470989,1.6671991,1.7886121,-0.7299834,-1.9515603,-18.13125,29.962502,0.28125,watch_1
15098433128807,4.981857,-4.470989,1.6671991,1.7886121,-0.7299834,-1.9515603,-17.643751,30.300001,0.3,watch_1
15098423973912,5.7858453,-4.322634,0.24586253,1.7886121,-0.7299834,-1.9515603,-17.643751,30.300001,0.3,watch_1
15098419011151,5.7858453,-4.322634,0.24586253,0.37751442,-0.66401,-1.9222387,-17.643751,30.300001,0.3,watch_1
15098443128755,5.7858453,-4.322634,0.24586253,0.37751442,-0.66401,-1.9222387,-19.3125,30.243752,-0.31875002,watch_1
15098438085162,5.7858453,-4.322634,0.24586253,-0.43249226,-0.5051852,-1.97966,-20.56875,28.06875,1.06875,watch_1
15098453128703,5.7858453,-4.322634,0.24586253,-0.43249226,-0.5051852,-1.97966,-20.56875,28.06875,1.06875,watch_1
15098443047922,7.058827,-5.279763,-0.28055847,-0.43249226,-0.5051852,-1.97966,-20.56875,28.06875,1.06875,watch_1
15098457158130,7.058827,-5.279763,-0.28055847,-1.0470222,-0.109344795,-1.9136866,-20.79375,27.487501,0.22500001,watch_1
15098463128651,7.058827,-5.279763,-0.28055847,-1.0470222,-0.109344795,-1.9136866,-20.79375,27.487501,0.22500001,watch_1
15098462120891,7.63789,-4.7676992,0.04007978,-1.0470222,-0.109344795,-1.9136866,-20.79375,27.487501,0.22500001,watch_1
15098473128599,7.63789,-4.7676992,0.04007978,-1.0470222,-0.109344795,-1.9136866,-21.300001,27.956251,2.0062501,watch_1
15098483128547,7.63789,-4.7676992,0.04007978,-1.0470222,-0.109344795,-1.9136866,-20.643751,27.018751,3.1875002,watch_1
15098476232141,7.140183,-3.3846476,0.738784,-1.1435388,0.31337363,-1.6998839,-20.643751,27.018751,3.1875002,watch_1
15098481194901,7.140183,-3.3846476,0.738784,-1.1435388,0.31337363,-1.6998839,-20.643751,27.018751,3.1875002,watch_1
15098493128495,7.140183,-3.3846476,0.738784,-1.1435388,0.31337363,-1.6998839,-22.85625,24.618752,3.3187501,watch_1
15098503128443,7.140183,-3.3846476,0.738784,-1.1435388,0.31337363,-1.6998839,-23.71875,24.91875,3.3375,watch_1
15098495305162,6.245267,-2.8199415,1.480559,-0.98715746,0.45387253,-1.2258528,-23.71875,24.91875,3.3375,watch_1
15098500267922,6.245267,-2.8199415,1.480559,-0.98715746,0.45387253,-1.2258528,-23.71875,24.91875,3.3375,watch_1
15098513128391,6.245267,-2.8199415,1.480559,-0.98715746,0.45387253,-1.2258528,-23.737501,24.6375,3.35625,watch_1
15098523128339,6.245267,-2.8199415,1.480559,-0.98715746,0.45387253,-1.2258528,-24.13125,24.975,4.875,watch_1
15098519341880,5.7667027,-2.1355941,1.7006987,-0.98715746,0.45387253,-1.2258528,-24.13125,24.975,4.875,watch_1
15098514379120,5.7667027,-2.1355941,1.7006987,-0.5571087,0.5222894,-0.6467531,-24.13125,24.975,4.875,watch_1
15098533128287,5.7667027,-2.1355941,1.7006987,-0.5571087,0.5222894,-0.6467531,-23.1,25.1625,2.9437501,watch_1
15098543128235,5.7667027,-2.1355941,1.7006987,-0.5571087,0.5222894,-0.6467531,-24.50625,24.712502,2.1000001,watch_1
15098533422141,5.7667027,-2.1355941,1.7006987,0.46425724,0.5369501,0.19257513,-24.50625,24.712502,2.1000001,watch_1
15098538384901,5.1732826,-0.8003992,2.1505494,0.46425724,0.5369501,0.19257513,-24.50625,24.712502,2.1000001,watch_1
15098553128182,5.1732826,-0.8003992,2.1505494,0.46425724,0.5369501,0.19257513,-22.987501,26.156252,3.15,watch_1
15098563128130,5.1732826,-0.8003992,2.1505494,0.46425724,0.5369501,0.19257513,-23.04375,25.593752,2.90625,watch_1
15098552495162,4.503292,0.25244278,2.681756,1.5552617,0.4819723,1.1699587,-23.04375,25.593752,2.90625,watch_1
15098557457922,4.503292,0.25244278,2.681756,1.5552617,0.4819723,1.1699587,-23.04375,25.593752,2.90625,watch_1
15098573128078,4.503292,0.25244278,2.681756,1.5552617,0.4819723,1.1699587,-23.75625,26.081251,2.34375,watch_1
15098583128026,4.503292,0.25244278,2.681756,1.5552617,0.4819723,1.1699587,-20.00625,26.1375,2.625,watch_1
15098571569120,4.106084,1.1234303,3.1316066,2.037845,0.5259546,2.0728168,-20.00625,26.1375,2.625,watch_1
15098576531880,4.106084,1.1234303,3.1316066,2.037845,0.5259546,2.0728168,-20.00625,26.1375,2.625,watch_1
15098593127974,4.106084,1.1234303,3.1316066,2.037845,0.5259546,2.0728168,-21.075,27.91875,-0.8625,watch_1
15098603127922,4.106084,1.1234303,3.1316066,2.037845,0.5259546,2.0728168,-18.375,29.41875,-1.8750001,watch_1
15098595604901,3.5653057,1.329213,3.1220353,2.037845,0.5259546,2.0728168,-18.375,29.41875,-1.8750001,watch_1
15098590642141,3.5653057,1.329213,3.1220353,1.987754,0.7031054,2.925584,-18.375,29.41875,-1.8750001,watch_1
15098613127870,3.5653057,1.329213,3.1220353,1.987754,0.7031054,2.925584,-18.862501,29.212502,-2.34375,watch_1
15098623127818,2.3641088,0.49651068,3.4187453,1.987754,0.7031054,2.925584,-16.125,29.8875,-3.54375,watch_1
15098614678912,2.3641088,0.49651068,3.4187453,1.987754,0.7031054,2.925584,-16.125,29.8875,-3.54375,watch_1
15098609716151,2.3641088,0.49651068,3.4187453,1.5442661,0.99143356,3.6781695,-16.125,29.8875,-3.54375,watch_1
15098633127766,2.3641088,0.49651068,3.4187453,1.5442661,0.99143356,3.6781695,-13.44375,31.237501,-4.3875003,watch_1
15098643127714,2.3641088,0.49651068,3.4187453,1.5442661,0.99143356,3.6781695,-12.7875,33.16875,-4.21875,watch_1
15098633751880,1.0289137,-0.80518484,4.026522,1.5442661,0.99143356,3.6781695,-12.7875,33.16875,-4.21875,watch_1
15098628789120,1.0289137,-0.80518484,4.026522,0.25778493,1.2675444,4.186409,-12.7875,33.16875,-4.21875,watch_1
15098653127662,1.0289137,-0.80518484,4.026522,0.25778493,1.2675444,4.186409,-11.3625,29.6625,-3.4125001,watch_1
15098652825891,0.08135597,-1.3842479,3.964309,0.25778493,1.2675444,4.186409,-11.3625,29.6625,-3.4125001,watch_1
15098647863130,0.08135597,-1.3842479,3.964309,-2.0525057,1.3445134,4.4784026,-11.3625,29.6625,-3.4125001,watch_1
15098663127610,0.08135597,-1.3842479,3.964309,-2.0525057,1.3445134,4.4784026,-10.6875,33.15,-4.40625,watch_1
15098673127557,0.08135597,-1.3842479,3.964309,-2.0525057,1.3445134,4.4784026,-8.45625,30.768751,1.3125,watch_1
15098666936151,0.08135597,-1.3842479,3.964309,-4.539947,1.2052362,4.714196,-6.7312503,31.406252,1.7437501,watch_1
15098683127505,0.08135597,-1.3842479,3.964309,-4.539947,1.2052362,4.714196,-6.7312503,31.406252,1.7437501,watch_1
15098671898912,-1.3974084,-7.0265236,1.317847,-4.539947,1.2052362,4.714196,-6.7312503,31.406252,1.7437501,watch_1
15098693127453,-1.3974084,-7.0265236,1.317847,-4.539947,1.2052362,4.714196,-4.7250004,36.225002,0.61875004,watch_1
15098686010162,-2.2731814,-14.946767,-3.6640096,-6.6205525,0.9462295,4.4991717,-4.7250004,36.225002,0.61875004,watch_1
15098690972922,-2.2731814,-14.946767,-3.6640096,-6.6205525,0.9462295,4.4991717,-4.7250004,36.225002,0.61875004,watch_1
15098703127401,-2.2731814,-14.946767,-3.6640096,-6.6205525,0.9462295,4.4991717,-2.3625002,34.03125,4.89375,watch_1
15098713127349,-2.2731814,-14.946767,-3.6640096,-6.6205525,0.9462295,4.4991717,-2.4,33.28125,6.99375,watch_1
15098710045891,-2.0865414,-16.703098,-7.0953174,-6.6205525,0.9462295,4.4991717,-2.4,33.28125,6.99375,watch_1
15098705083130,-2.0865414,-16.703098,-7.0953174,-7.662688,0.6493493,4.214509,0.76875,34.4625,10.14375,watch_1
15098723127297,-2.0865414,-16.703098,-7.0953174,-7.662688,0.6493493,4.214509,0.76875,34.4625,10.14375,watch_1
15098733127245,-2.0865414,-16.703098,-7.0953174,-7.662688,0.6493493,4.214509,4.2937503,33.131252,14.025001,watch_1
15098729088912,-2.5268207,-15.592829,-5.9467626,-7.6345882,0.34025168,4.0886707,4.2937503,33.131252,14.025001,watch_1
15098724126151,-2.5268207,-15.592829,-5.9467626,-7.6345882,0.34025168,4.0886707,4.2937503,33.131252,14.025001,watch_1
15098743127193,-2.5268207,-15.592829,-5.9467626,-7.6345882,0.34025168,4.0886707,3.0,30.675001,15.712501,watch_1
15098753127141,-2.5268207,-15.592829,-5.9467626,-7.6345882,0.34025168,4.0886707,3.73125,29.831251,19.800001,watch_1
15098748162922,-3.9673,-16.827526,-7.669595,-7.99622,0.36224282,3.0880742,3.73125,29.831251,19.800001,watch_1
15098743200162,-3.9673,-16.827526,-7.669595,-7.99622,0.36224282,3.0880742,3.73125,29.831251,19.800001,watch_1
15098763127089,-3.9673,-16.827526,-7.669595,-7.99622,0.36224282,3.0880742,5.53125,28.1625,22.35,watch_1
15098773127037,-3.9673,-16.827526,-7.669595,-7.99622,0.36224282,3.0880742,6.2250004,26.1,23.8125,watch_1
15098767235891,-5.1493545,-23.45086,-14.221143,-7.99622,0.36224282,3.0880742,6.2250004,26.1,23.8125,watch_1
15098762273130,-5.1493545,-23.45086,-14.221143,-8.17337,0.41233373,1.9872959,6.2250004,26.1,23.8125,watch_1
15098783126985,-5.1493545,-23.45086,-14.221143,-8.17337,0.41233373,1.9872959,7.2000003,23.60625,27.075,watch_1
15098793126932,-5.1493545,-23.45086,-14.221143,-8.17337,0.41233373,1.9872959,5.9437504,21.112501,29.775002,watch_1
15098786309901,0.5982057,-28.246075,-17.638094,-8.17337,0.41233373,1.9872959,5.9437504,21.112501,29.775002,watch_1
15098781347141,0.5982057,-28.246075,-17.638094,-6.420189,0.65667963,0.8901827,5.9437504,21.112501,29.775002,watch_1
15098803126880,0.5982057,-28.246075,-17.638094,-6.420189,0.65667963,0.8901827,6.20625,19.462502,29.98125,watch_1
15098813126828,0.5982057,-28.246075,-17.638094,-6.420189,0.65667963,0.8901827,6.5625005,16.725,33.61875,watch_1
15098805382922,3.4600215,-23.848066,-17.078173,-2.4678936,1.1478149,-0.44394597,6.5625005,16.725,33.61875,watch_1
15098800420162,3.4600215,-23.848066,-17.078173,-2.4678936,1.1478149,-0.44394597,6.5625005,16.725,33.61875,watch_1
15098823126776,3.4600215,-23.848066,-17.078173,-2.4678936,1.1478149,-0.44394597,5.625,19.181252,32.550003,watch_1
15098833126724,3.4600215,-23.848066,-17.078173,-2.4678936,1.1478149,-0.44394597,4.05,18.393751,33.16875,watch_1
15098824456880,1.2921243,-17.617157,-16.144972,-2.4678936,1.1478149,-0.44394597,4.05,18.393751,33.16875,watch_1
15098819494120,1.2921243,-17.617157,-16.144972,0.09529491,1.8454225,-1.609476,4.05,18.393751,33.16875,watch_1
15098843126672,1.2921243,-17.617157,-16.144972,0.09529491,1.8454225,-1.609476,1.6875001,18.993752,30.656252,watch_1
15098853126620,1.2921243,-17.617157,-16.144972,0.09529491,1.8454225,-1.609476,1.125,20.4375,32.0625,watch_1
15098843529901,0.9379865,-17.11945,-12.536596,0.09529491,1.8454225,-1.609476,1.125,20.4375,32.0625,watch_1
15098838567141,0.9379865,-17.11945,-12.536596,1.2082906,2.5540257,-2.5135558,1.125,20.4375,32.0625,watch_1
15098863126568,0.9379865,-17.11945,-12.536596,1.2082906,2.5540257,-2.5135558,-0.28125,20.15625,30.31875,watch_1
15098862603912,0.08135597,-15.889539,-7.0666037,1.2082906,2.5540257,-2.5135558,-0.28125,20.15625,30.31875,watch_1
15098857641151,0.08135597,-15.889539,-7.0666037,3.6920667,2.8924448,-3.3492188,-0.28125,20.15625,30.31875,watch_1
15098873126516,0.08135597,-15.889539,-7.0666037,3.6920667,2.8924448,-3.3492188,-2.4,19.85625,31.125002,watch_1
15098883126464,0.08135597,-15.889539,-7.0666037,3.6920667,2.8924448,-3.3492188,-3.8437502,21.993752,28.725,watch_1
15098881676880,-1.0289137,-11.587244,-1.634896,7.00051,2.5637994,-4.007731,-5.5687504,24.69375,24.0375,watch_1
15098876714120,-1.0289137,-11.587244,-1.634896,7.00051,2.5637994,-4.007731,-5.5687504,24.69375,24.0375,watch_1
15098893126412,-1.0289137,-11.587244,-1.634896,7.00051,2.5637994,-4.007731,-5.5687504,24.69375,24.0375,watch_1
15098903126360,-1.0289137,-11.587244,-1.634896,7.00051,2.5637994,-4.007731,-7.5750003,24.6375,21.337502,watch_1
15098900750891,-1.7515461,-5.40419,0.26021945,9.286366,1.770897,-4.410902,-7.5750003,24.6375,21.337502,watch_1
15098895788130,-1.7515461,-5.40419,0.26021945,9.286366,1.770897,-4.410902,-7.5750003,24.6375,21.337502,watch_1
15098913126307,-1.7515461,-5.40419,0.26021945,9.286366,1.770897,-4.410902,-10.462501,26.962502,21.075,watch_1
15098923126255,-1.7515461,-5.40419,0.26021945,9.286366,1.770897,-4.410902,-12.375001,28.25625,14.925,watch_1
15098919793912,-0.8709874,0.84107715,-1.4530416,9.286366,1.770897,-4.410902,-12.375001,28.25625,14.925,watch_1
15098914831151,-0.8709874,0.84107715,-1.4530416,10.405471,0.9401209,-4.5220795,-12.375001,28.25625,14.925,watch_1
15098933126203,-0.8709874,0.84107715,-1.4530416,10.405471,0.9401209,-4.5220795,-14.343751,28.650002,11.15625,watch_1
15098943126151,-0.8709874,0.84107715,-1.4530416,10.405471,0.9401209,-4.5220795,-15.4875,29.718752,7.2937503,watch_1
15098938866880,0.29671,3.769892,-2.027319,10.405471,0.9401209,-4.5220795,-15.4875,29.718752,7.2937503,watch_1
15098933904120,0.29671,3.769892,-2.027319,10.789094,0.34269515,-3.7401724,-16.050001,29.475,2.60625,watch_1
15098953126099,0.29671,3.769892,-2.027319,10.789094,0.34269515,-3.7401724,-16.050001,29.475,2.60625,watch_1
15098963126047,0.29671,3.769892,-2.027319,10.789094,0.34269515,-3.7401724,-17.625,29.5125,-1.5,watch_1
15098957940891,1.6797615,6.789634,-3.0466614,10.789094,0.34269515,-3.7401724,-17.625,29.5125,-1.5,watch_1
15098952978130,1.6797615,6.789634,-3.0466614,9.885014,0.11423171,-2.5514295,-19.800001,28.987501,-3.6000001,watch_1
15098973125995,1.6797615,6.789634,-3.0466614,9.885014,0.11423171,-2.5514295,-19.800001,28.987501,-3.6000001,watch_1
15098983125943,1.6797615,6.789634,-3.0466614,9.885014,0.11423171,-2.5514295,-18.65625,26.38125,-6.8437505,watch_1
15098977013912,2.928815,6.6221366,-2.3336003,8.965052,0.6236929,-1.4005603,-18.65625,26.38125,-6.8437505,watch_1
15098972051151,2.928815,6.6221366,-2.3336003,8.965052,0.6236929,-1.4005603,-18.65625,26.38125,-6.8437505,watch_1
15098993125891,2.928815,6.6221366,-2.3336003,8.965052,0.6236929,-1.4005603,-19.48125,28.275002,-13.950001,watch_1
15099003125839,2.928815,6.6221366,-2.3336003,8.965052,0.6236929,-1.4005603,-18.487501,25.1625,-14.400001,watch_1
15098996086880,1.8329022,10.187443,0.91585284,8.965052,0.6236929,-1.4005603,-18.487501,25.1625,-14.400001,watch_1
15098991124120,1.8329022,10.187443,0.91585284,6.8685637,1.4691298,0.31474808,-18.487501,25.1625,-14.400001,watch_1
15099013125787,1.8329022,10.187443,0.91585284,6.8685637,1.4691298,0.31474808,-19.7625,26.6625,-19.2,watch_1
15099023125735,-0.6795616,12.886546,6.1944194,6.8685637,1.4691298,0.31474808,-18.09375,26.23125,-16.06875,watch_1
15099015160891,-0.6795616,12.886546,6.1944194,6.8685637,1.4691298,0.31474808,-18.09375,26.23125,-16.06875,watch_1
15099010198130,-0.6795616,12.886546,6.1944194,2.6707008,2.3793182,1.8272493,-18.09375,26.23125,-16.06875,watch_1
15099033125682,-0.6795616,12.886546,6.1944194,2.6707008,2.3793182,1.8272493,-14.325001,27.075,-18.900002,watch_1
15099043125630,-0.6795616,12.886546,6.1944194,2.6707008,2.3793182,1.8272493,-13.687501,27.431252,-18.862501,watch_1
15099029271151,-2.239682,9.512667,5.744569,-2.8906121,2.9144359,2.6849034,-13.687501,27.431252,-18.862501,watch_1
15099034233912,-2.239682,9.512667,5.744569,-2.8906121,2.9144359,2.6849034,-13.687501,27.431252,-18.862501,watch_1
15099053125578,-2.239682,9.512667,5.744569,-2.8906121,2.9144359,2.6849034,-13.63125,31.462502,-15.4875,watch_1
15099063125526,-1.7659031,2.8606195,3.9834516,-6.781821,2.5332563,3.816225,-11.15625,30.31875,-12.618751,watch_1
15099053307922,-1.7659031,2.8606195,3.9834516,-6.781821,2.5332563,3.816225,-11.15625,30.31875,-12.618751,watch_1
15099048345162,-1.7659031,2.8606195,3.9834516,-6.781821,2.5332563,3.816225,-11.15625,30.31875,-12.618751,watch_1
15099073125474,-1.7659031,2.8606195,3.9834516,-6.781821,2.5332563,3.816225,-6.9187503,33.05625,-9.637501,watch_1
15099083125422,-1.5314065,-3.824927,4.811368,-8.607084,1.9712607,4.6555533,-6.6562505,33.600002,-6.7500005,watch_1
15099072380891,-1.5314065,-3.824927,4.811368,-8.607084,1.9712607,4.6555533,-6.6562505,33.600002,-6.7500005,watch_1
15099067418130,-1.7659031,2.8606195,3.9834516,-8.607084,1.9712607,4.6555533,-6.6562505,33.600002,-6.7500005,watch_1
15099093125370,-1.5314065,-3.824927,4.811368,-8.607084,1.9712607,4.6555533,-3.43125,35.0625,-2.7375002,watch_1
15099091454901,-1.7324036,-10.912468,3.9116669,-8.607084,1.9712607,4.6555533,-3.43125,35.0625,-2.7375002,watch_1
15099086492141,-1.7324036,-10.912468,3.9116669,-10.957692,0.8533781,4.971981,-3.43125,35.0625,-2.7375002,watch_1
15099103125318,-1.7324036,-10.912468,3.9116669,-10.957692,0.8533781,4.971981,-0.84375006,36.131252,1.95,watch_1
15099113125266,-1.7324036,-10.912468,3.9116669,-10.957692,0.8533781,4.971981,1.7062501,33.61875,9.31875,watch_1
15099110497922,-0.8135597,-15.702899,-11.440683,-13.9155,-0.2547306,4.4991717,1.7062501,33.61875,9.31875,watch_1
15099105535162,-0.8135597,-15.702899,-11.440683,-13.9155,-0.2547306,4.4991717,1.7062501,33.61875,9.31875,watch_1
15099123125214,-0.8135597,-15.702899,-11.440683,-13.9155,-0.2547306,4.4991717,0.7875,32.2125,16.48125,watch_1
15099133125162,-0.8135597,-15.702899,-11.440683,-13.9155,-0.2547306,4.4991717,4.6687503,30.075,20.325,watch_1
15099129570891,1.8855443,-18.004793,-25.792833,-13.9155,-0.2547306,4.4991717,4.6687503,30.075,20.325,watch_1
15099124608130,1.8855443,-18.004793,-25.792833,-15.429223,-0.5552761,3.7307038,4.275,27.075,25.518751,watch_1
15099143125110,1.8855443,-18.004793,-25.792833,-15.429223,-0.5552761,3.7307038,4.275,27.075,25.518751,watch_1
15099153125057,1.8855443,-18.004793,-25.792833,-15.429223,-0.5552761,3.7307038,3.4125001,22.48125,30.075,watch_1
15099148644901,-3.7471602,-24.72384,-23.596222,-15.429223,-0.5552761,3.7307038,3.4125001,22.48125,30.075,watch_1
15099143682141,-3.7471602,-24.72384,-23.596222,-13.467125,0.7947351,2.1155775,4.425,15.825001,36.225002,watch_1
15099163125005,-3.7471602,-24.72384,-23.596222,-13.467125,0.7947351,2.1155775,4.425,15.825001,36.225002,watch_1
15099173124953,-3.7471602,-24.72384,-23.596222,-13.467125,0.7947351,2.1155775,4.05,16.650002,35.53125,watch_1
15099162755162,-3.7471602,-24.72384,-23.596222,-5.0042043,0.8179479,0.47479466,4.05,16.650002,35.53125,watch_1
15099167717922,-4.5798626,-31.65824,-20.303698,-5.0042043,0.8179479,0.47479466,4.05,16.650002,35.53125,watch_1
15099183124901,-4.5798626,-31.65824,-20.303698,-5.0042043,0.8179479,0.47479466,6.5437503,16.10625,36.15,watch_1
15099193124849,-4.5798626,-31.65824,-20.303698,-5.0042043,0.8179479,0.47479466,5.7562504,14.2875,36.825,watch_1
15099186791880,1.8664017,-24.034706,-13.551153,2.5118759,0.5772672,-0.71150476,5.7562504,14.2875,36.825,watch_1
15099181829120,1.8664017,-24.034706,-13.551153,2.5118759,0.5772672,-0.71150476,5.7562504,14.2875,36.825,watch_1
15099203124797,1.8664017,-24.034706,-13.551153,2.5118759,0.5772672,-0.71150476,3.35625,18.712502,34.0875,watch_1
15099213124745,1.8664017,-24.034706,-13.551153,2.5118759,0.5772672,-0.71150476,3.8625002,20.456251,34.40625,watch_1
15099205864901,2.713461,-17.215162,-10.852049,4.392118,0.87536925,-2.485456,3.8625002,20.456251,34.40625,watch_1
15099200902141,2.713461,-17.215162,-10.852049,4.392118,0.87536925,-2.485456,3.8625002,20.456251,34.40625,watch_1
15099223124693,2.713461,-17.215162,-10.852049,4.392118,0.87536925,-2.485456,2.3625002,20.71875,32.90625,watch_1
15099233124641,2.713461,-17.215162,-10.852049,4.392118,0.87536925,-2.485456,0.8625,22.44375,29.79375,watch_1
15099219976151,3.0963125,-11.118251,-7.420741,5.231446,0.98776835,-3.393201,0.8625,22.44375,29.79375,watch_1
15099243124589,3.0963125,-11.118251,-7.420741,5.231446,0.98776835,-3.393201,-0.39375,23.587502,28.237501,watch_1
15099244011880,1.6845472,-7.4333034,-5.03749,6.428741,1.039081,-3.850128,-2.86875,23.94375,28.931252,watch_1
15099239049120,1.6845472,-7.4333034,-5.03749,6.428741,1.039081,-3.850128,-2.86875,23.94375,28.931252,watch_1
15099224938912,1.6845472,-7.4333034,-5.03749,6.428741,1.039081,-3.850128,-2.86875,23.94375,28.931252,watch_1
15099253124537,1.6845472,-7.4333034,-5.03749,6.428741,1.039081,-3.850128,-2.86875,23.94375,28.931252,watch_1
15099263124485,1.6845472,-7.4333034,-5.03749,6.428741,1.039081,-3.850128,-3.2250001,23.643751,28.2,watch_1
15099263085891,0.14356937,-4.9256253,-3.2285159,7.810517,0.8326087,-4.033387,-3.2250001,23.643751,28.2,watch_1
15099258123130,0.14356937,-4.9256253,-3.2285159,7.810517,0.8326087,-4.033387,-3.2250001,23.643751,28.2,watch_1
15099273124432,0.14356937,-4.9256253,-3.2285159,7.810517,0.8326087,-4.033387,-2.30625,26.925001,25.500002,watch_1
15099283124380,0.14356937,-4.9256253,-3.2285159,7.810517,0.8326087,-4.033387,-6.9,28.462502,18.73125,watch_1
15099277196151,0.14356937,-4.9256253,-3.2285159,9.239941,0.4233293,-3.7426157,-6.9,28.462502,18.73125,watch_1
15099293124328,0.14356937,-4.9256253,-3.2285159,9.239941,0.4233293,-3.7426157,-8.868751,28.687502,16.29375,watch_1
15099282158912,-0.49292147,-0.44147578,-2.6685956,9.239941,0.4233293,-3.7426157,-8.868751,28.687502,16.29375,watch_1
15099303124276,-0.49292147,-0.44147578,-2.6685956,9.239941,0.4233293,-3.7426157,-11.53125,27.975,13.875001,watch_1
15099296239120,-0.49292147,-0.44147578,-2.6685956,9.975422,0.048258316,-2.6564982,-11.53125,27.975,13.875001,watch_1
15099313124224,-0.49292147,-0.44147578,-2.6685956,9.975422,0.048258316,-2.6564982,-8.85,28.706251,9.0375,watch_1
15099301201880,-0.5455636,4.133601,-0.22791636,9.975422,0.048258316,-2.6564982,-8.85,28.706251,9.0375,watch_1
15099323124172,-0.5455636,4.133601,-0.22791636,9.975422,0.048258316,-2.6564982,-12.150001,30.825,3.05625,watch_1
15099320275891,0.65084773,9.474381,2.9880373,9.975422,0.048258316,-2.6564982,-12.150001,30.825,3.05625,watch_1
15099315313130,0.65084773,9.474381,2.9880373,8.374956,-0.26083925,-1.3211478,-12.150001,30.825,3.05625,watch_1
15099333124120,0.65084773,9.474381,2.9880373,8.374956,-0.26083925,-1.3211478,-11.3625,28.518751,3.0937502,watch_1
15099343124068,0.65084773,9.474381,2.9880373,8.374956,-0.26083925,-1.3211478,-9.4875,26.812502,2.1750002,watch_1
15099334386151,0.65084773,9.474381,2.9880373,4.287049,0.116675176,-0.16416991,-9.4875,26.812502,2.1750002,watch_1
15099339348912,0.9906286,6.6939216,5.8546386,4.287049,0.116675176,-0.16416991,-9.4875,26.812502,2.1750002,watch_1
15099353124016,0.9906286,6.6939216,5.8546386,4.287049,0.116675176,-0.16416991,-11.868751,28.687502,-1.2,watch_1
15099363123964,0.9906286,6.6939216,5.8546386,4.287049,0.116675176,-0.16416991,-9.3,27.431252,0.52500004,watch_1
15099353460162,0.2536392,4.6600223,4.2131624,-0.45203993,0.61025393,1.2347105,-9.3,27.431252,0.52500004,watch_1
15099358422922,0.2536392,4.6600223,4.2131624,-0.45203993,0.61025393,1.2347105,-9.3,27.431252,0.52500004,watch_1
15099373123912,0.2536392,4.6600223,4.2131624,-0.45203993,0.61025393,1.2347105,-8.34375,29.081251,1.5,watch_1
15099383123860,0.2536392,4.6600223,4.2131624,-0.45203993,0.61025393,1.2347105,-8.925,30.73125,0.975,watch_1
15099377495891,-0.7369894,5.736792,4.433302,-0.45203993,0.61025393,1.2347105,-8.925,30.73125,0.975,watch_1
15099372533130,-0.7369894,5.736792,4.433302,-2.8588471,0.76419187,2.863276,-8.925,30.73125,0.975,watch_1
15099393123807,-0.7369894,5.736792,4.433302,-2.8588471,0.76419187,2.863276,-7.0875,32.5125,0.8625,watch_1
15099403123755,-0.7369894,5.736792,4.433302,-2.8588471,0.76419187,2.863276,-5.15625,32.175003,1.8375001,watch_1
15099396569901,-1.6510476,2.1044874,3.7728832,-2.8588471,0.76419187,2.863276,-5.15625,32.175003,1.8375001,watch_1
15099391607141,-1.6510476,2.1044874,3.7728832,-4.59859,0.6334668,3.8369944,-5.15625,32.175003,1.8375001,watch_1
15099413123703,-1.6510476,2.1044874,3.7728832,-4.59859,0.6334668,3.8369944,-4.3875003,33.206253,4.59375,watch_1
15099423123651,-1.6510476,2.1044874,3.7728832,-4.59859,0.6334668,3.8369944,-3.6562502,33.768753,8.83125,watch_1
15099415642922,-2.3976083,-6.8015985,0.9206385,-6.5863442,0.12522727,4.3256865,-3.6562502,33.768753,8.83125,watch_1
15099410680162,-2.3976083,-6.8015985,0.9206385,-6.5863442,0.12522727,4.3256865,-3.6562502,33.768753,8.83125,watch_1
15099433123599,-2.3976083,-6.8015985,0.9206385,-6.5863442,0.12522727,4.3256865,-0.71250004,32.9625,11.4375,watch_1
15099443123547,-2.3976083,-6.8015985,0.9206385,-6.5863442,0.12522727,4.3256865,4.1625004,31.500002,16.78125,watch_1
15099429754120,-1.942972,-17.258234,-4.3483567,-9.511165,-0.15332706,4.0886707,4.1625004,31.500002,16.78125,watch_1
15099434716880,-1.942972,-17.258234,-4.3483567,-9.511165,-0.15332706,4.0886707,4.1625004,31.500002,16.78125,watch_1
15099453123495,-1.942972,-17.258234,-4.3483567,-9.511165,-0.15332706,4.0886707,2.1750002,32.5125,17.19375,watch_1
15099463123443,-1.942972,-17.258234,-4.3483567,-9.511165,-0.15332706,4.0886707,3.5812502,28.050001,21.993752,watch_1
15099448827141,-1.942972,-17.258234,-4.3483567,-13.02608,-0.30970845,3.3165376,3.5812502,28.050001,21.993752,watch_1
15099453789901,2.2779672,-20.976679,-15.336199,-13.02608,-0.30970845,3.3165376,3.5812502,28.050001,21.993752,watch_1
15099473123391,2.2779672,-20.976679,-15.336199,-13.02608,-0.30970845,3.3165376,3.8812501,27.112501,27.656252,watch_1
15099472863912,6.4845495,-11.49153,-15.34577,-13.02608,-0.30970845,3.3165376,3.8812501,27.112501,27.656252,watch_1
15099467901151,6.4845495,-11.49153,-15.34577,-15.043156,0.032375835,2.2866197,5.0625,19.368752,33.787502,watch_1
15099483123339,6.4845495,-11.49153,-15.34577,-15.043156,0.032375835,2.2866197,5.0625,19.368752,33.787502,watch_1
15099493123287,6.4845495,-11.49153,-15.34577,-15.043156,0.032375835,2.2866197,5.025,12.6,39.09375,watch_1
15099486944120,6.4845495,-11.49153,-15.34577,-12.348021,0.43799004,0.77167493,5.025,12.6,39.09375,watch_1
15099491906880,-9.355937,-13.96571,-22.107887,-12.348021,0.43799004,0.77167493,5.4750004,11.231251,39.412502,watch_1
15099503123235,-9.355937,-13.96571,-22.107887,-12.348021,0.43799004,0.77167493,5.4750004,11.231251,39.412502,watch_1
15099513123182,-9.355937,-13.96571,-22.107887,-12.348021,0.43799004,0.77167493,3.6000001,7.5375004,41.60625,watch_1
15099510979901,1.2442678,-26.65724,-22.935802,-12.348021,0.43799004,0.77167493,3.6000001,7.5375004,41.60625,watch_1
15099506017141,1.2442678,-26.65724,-22.935802,-4.069581,0.8619302,0.32330018,3.1875002,6.5062504,41.081253,watch_1
15099523123130,1.2442678,-26.65724,-22.935802,-4.069581,0.8619302,0.32330018,3.1875002,6.5062504,41.081253,watch_1
15099533123078,1.2442678,-26.65724,-22.935802,-4.069581,0.8619302,0.32330018,5.26875,7.5937505,42.375,watch_1
15099530053912,3.2829528,-16.717455,-17.93959,-4.069581,0.8619302,0.32330018,5.26875,7.5937505,42.375,watch_1
15099525091151,3.2829528,-16.717455,-17.93959,2.65604,0.962112,-1.0047199,5.26875,7.5937505,42.375,watch_1
15099543123026,3.2829528,-16.717455,-17.93959,2.65604,0.962112,-1.0047199,3.6750002,9.8625,39.487503,watch_1
15099553122974,3.2829528,-16.717455,-17.93959,2.65604,0.962112,-1.0047199,1.5,11.85,39.05625,watch_1
15099549126880,3.1537402,-12.190235,-13.0773735,2.65604,0.962112,-1.0047199,1.5,11.85,39.05625,watch_1
15099544164120,3.1537402,-12.190235,-13.0773735,3.7409358,1.7342451,-2.0908375,1.5,11.85,39.05625,watch_1
15099563122922,3.1537402,-12.190235,-13.0773735,3.7409358,1.7342451,-2.0908375,1.725,12.431251,39.300003,watch_1
15099573122870,3.1537402,-12.190235,-13.0773735,3.7409358,1.7342451,-2.0908375,1.5,12.95625,40.537502,watch_1
15099568200891,2.1774685,-9.706485,-10.095917,3.7409358,1.7342451,-2.0908375,1.5,12.95625,40.537502,watch_1
15099563238130,2.1774685,-9.706485,-10.095917,4.685333,2.0775511,-2.8373141,1.5,12.95625,40.537502,watch_1
15099583122818,2.1774685,-9.706485,-10.095917,4.685333,2.0775511,-2.8373141,-2.025,17.306252,33.600002,watch_1
15099593122766,2.1774685,-9.706485,-10.095917,4.685333,2.0775511,-2.8373141,-2.2687502,15.76875,37.65,watch_1
15099587273912,0.12921242,-7.9357963,-6.5688963,4.685333,2.0775511,-2.8373141,-2.2687502,15.76875,37.65,watch_1
15099582311151,0.12921242,-7.9357963,-6.5688963,7.170331,2.0115776,-3.131751,-2.2687502,15.76875,37.65,watch_1
15099603122714,0.12921242,-7.9357963,-6.5688963,7.170331,2.0115776,-3.131751,-4.8562503,20.362501,32.68125,watch_1
15099613122662,0.12921242,-7.9357963,-6.5688963,7.170331,2.0115776,-3.131751,-5.1000004,22.650002,29.681252,watch_1
15099601385162,0.12921242,-7.9357963,-6.5688963,9.830036,1.5986332,-3.1928375,-5.1000004,22.650002,29.681252,watch_1
15099606347922,-1.1964114,-5.2366924,-3.9367914,9.830036,1.5986332,-3.1928375,-5.1000004,22.650002,29.681252,watch_1
15099623122610,-1.1964114,-5.2366924,-3.9367914,9.830036,1.5986332,-3.1928375,-6.24375,24.0375,24.31875,watch_1
15099633122557,-1.1964114,-5.2366924,-3.9367914,9.830036,1.5986332,-3.1928375,-7.4437504,27.206251,21.2625,watch_1
15099625420891,-1.2586247,-0.9870393,-3.4773695,12.075575,0.85948676,-2.9265006,-7.4437504,27.206251,21.2625,watch_1
15099620458130,-1.2586247,-0.9870393,-3.4773695,12.075575,0.85948676,-2.9265006,-7.4437504,27.206251,21.2625,watch_1
15099643122505,-1.2586247,-0.9870393,-3.4773695,12.075575,0.85948676,-2.9265006,-7.6125,29.1375,16.25625,watch_1
15099653122453,-1.2586247,-0.9870393,-3.4773695,12.075575,0.85948676,-2.9265006,-9.1875,29.475,10.51875,watch_1
15099644493912,-0.30149564,2.8031917,-2.4580271,13.303413,0.27794346,-2.1763585,-9.1875,29.475,10.51875,watch_1
15099639531151,-0.30149564,2.8031917,-2.4580271,13.303413,0.27794346,-2.1763585,-9.1875,29.475,10.51875,watch_1
15099663122401,-0.30149564,2.8031917,-2.4580271,13.303413,0.27794346,-2.1763585,-9.918751,30.50625,4.51875,watch_1
15099673122349,-0.30149564,2.8031917,-2.4580271,12.179422,0.13377939,-1.1207842,-10.44375,29.268751,0.22500001,watch_1
15099658605162,-0.30149564,2.8031917,-2.4580271,12.179422,0.13377939,-1.1207842,-10.44375,29.268751,0.22500001,watch_1
15099663567922,1.1485549,8.215756,1.8969102,12.179422,0.13377939,-1.1207842,-10.44375,29.268751,0.22500001,watch_1
15099683122297,1.1485549,8.215756,1.8969102,12.179422,0.13377939,-1.1207842,-11.400001,30.956251,-4.70625,watch_1
15099682610891,1.3974084,8.2253275,6.524629,7.7848606,0.456316,0.06185006,-11.400001,30.956251,-4.70625,watch_1
15099677648130,1.3974084,8.2253275,6.524629,7.7848606,0.456316,0.06185006,-11.400001,30.956251,-4.70625,watch_1
15099693122245,1.3974084,8.2253275,6.524629,7.7848606,0.456316,0.06185006,-10.44375,30.4125,-6.58125,watch_1
15099703122193,1.3974084,8.2253275,6.524629,7.7848606,0.456316,0.06185006,-10.462501,30.768751,-9.95625,watch_1
15099701683912,0.526421,3.822534,6.5342007,1.9315544,0.9327905,1.1907282,-10.462501,30.768751,-9.95625,watch_1
15099696721151,0.526421,3.822534,6.5342007,1.9315544,0.9327905,1.1907282,-10.462501,30.768751,-9.95625,watch_1
15099713122141,0.526421,3.822534,6.5342007,1.9315544,0.9327905,1.1907282,-9.075001,29.493752,-8.231251,watch_1
15099723122089,0.526421,3.822534,6.5342007,1.9315544,0.9327905,1.1907282,-11.418751,28.63125,-8.26875,watch_1
15099720757922,-0.08135597,5.176872,5.3473606,1.9315544,0.9327905,1.1907282,-11.418751,28.63125,-8.26875,watch_1
15099715795162,-0.08135597,5.176872,5.3473606,-2.2931864,1.3005311,2.2817326,-7.8187504,31.1625,-6.20625,watch_1
15099733122037,-0.08135597,5.176872,5.3473606,-2.2931864,1.3005311,2.2817326,-7.8187504,31.1625,-6.20625,watch_1
15099743121985,-0.08135597,5.176872,5.3473606,-2.2931864,1.3005311,2.2817326,-5.4750004,30.300001,-3.9562502,watch_1
15099739830891,-0.8279166,2.8366911,4.1030927,-2.2931864,1.3005311,2.2817326,-5.4750004,30.300001,-3.9562502,watch_1
15099734868130,-0.8279166,2.8366911,4.1030927,-5.1752462,1.2137883,3.2090254,-5.4750004,30.300001,-3.9562502,watch_1
15099753121932,-0.8279166,2.8366911,4.1030927,-5.1752462,1.2137883,3.2090254,-5.1937504,34.143753,-3.43125,watch_1
15099763121880,-0.8279166,2.8366911,4.1030927,-5.1752462,1.2137883,3.2090254,-2.5875,33.9375,1.3875,watch_1
15099758904901,-1.3208381,-4.1072803,2.3276181,-5.1752462,1.2137883,3.2090254,-2.5875,33.9375,1.3875,watch_1
15099753942141,-1.3208381,-4.1072803,2.3276181,-7.393907,0.67744905,3.888307,-2.5875,33.9375,1.3875,watch_1
15099773121828,-1.3208381,-4.1072803,2.3276181,-7.393907,0.67744905,3.888307,-1.0500001,33.6375,5.2312503,watch_1
15099783121776,-1.3208381,-4.1072803,2.3276181,-7.393907,0.67744905,3.888307,-1.21875,31.556252,8.175,watch_1
15099777977922,-2.2779672,-14.583057,-0.5054838,-7.393907,0.67744905,3.888307,-1.21875,31.556252,8.175,watch_1
15099773015162,-2.2779672,-14.583057,-0.5054838,-9.241162,0.26816964,4.0165887,-1.21875,31.556252,8.175,watch_1
15099793121724,-2.2779672,-14.583057,-0.5054838,-9.241162,0.26816964,4.0165887,0.375,31.81875,12.1125,watch_1
15099803121672,-2.2779672,-14.583057,-0.5054838,-9.241162,0.26816964,4.0165887,1.4250001,31.312502,16.050001,watch_1
15099797051880,-0.8757731,-23.651855,-7.042675,-9.241162,0.26816964,4.0165887,1.4250001,31.312502,16.050001,watch_1
15099792089120,-0.8757731,-23.651855,-7.042675,-11.578331,-0.12400555,3.1919212,1.4250001,31.312502,16.050001,watch_1
15099813121620,-0.8757731,-23.651855,-7.042675,-11.578331,-0.12400555,3.1919212,3.35625,27.6375,20.85,watch_1
15099823121568,-0.8757731,-23.651855,-7.042675,-11.578331,-0.12400555,3.1919212,4.51875,27.6375,27.375002,watch_1
15099816124901,3.0005996,-12.242877,-9.296714,-13.485451,-0.63224506,2.443001,4.51875,27.6375,27.375002,watch_1
15099811162141,3.0005996,-12.242877,-9.296714,-13.485451,-0.63224506,2.443001,4.51875,27.6375,27.375002,watch_1
15099833121516,3.0005996,-12.242877,-9.296714,-13.485451,-0.63224506,2.443001,5.71875,24.806252,28.087502,watch_1
15099843121464,3.0005996,-12.242877,-9.296714,-13.485451,-0.63224506,2.443001,7.1625004,17.775002,35.04375,watch_1
15099830236151,-6.9726853,-3.8344984,-14.690136,-13.226444,-0.39522952,1.3654355,7.1625004,17.775002,35.04375,watch_1
15099835198912,-6.9726853,-3.8344984,-14.690136,-13.226444,-0.39522952,1.3654355,7.1625004,17.775002,35.04375,watch_1
15099853121412,-6.9726853,-3.8344984,-14.690136,-13.226444,-0.39522952,1.3654355,5.49375,15.975,36.3375,watch_1
15099863121360,-6.9726853,-3.8344984,-14.690136,-13.226444,-0.39522952,1.3654355,5.25,9.543751,37.96875,watch_1
15099854271880,-2.7900312,-21.043678,-27.87459,-10.839185,0.16065744,0.16447534,5.25,9.543751,37.96875,watch_1
15099849309120,-2.7900312,-21.043678,-27.87459,-10.839185,0.16065744,0.16447534,5.25,9.543751,37.96875,watch_1
15099873121307,-2.7900312,-21.043678,-27.87459,-10.839185,0.16065744,0.16447534,6.6375003,9.69375,39.412502,watch_1
15099883121255,-2.7900312,-21.043678,-27.87459,-10.839185,0.16065744,0.16447534,4.8562503,5.45625,40.93125,watch_1
15099873314901,4.412365,-23.84328,-23.361725,-10.839185,0.16065744,0.16447534,4.8562503,5.45625,40.93125,watch_1
15099868352141,4.412365,-23.84328,-23.361725,-3.4355035,0.85215634,-0.20326525,4.8562503,5.45625,40.93125,watch_1
15099893121203,4.412365,-23.84328,-23.361725,-3.4355035,0.85215634,-0.20326525,4.6125,7.1062503,41.475002,watch_1
15099887426151,4.412365,-23.84328,-23.361725,2.4226897,1.039081,-1.4701988,4.6125,7.1062503,41.475002,watch_1
15099903121151,1.0193424,-12.26202,-17.197815,2.4226897,1.039081,-1.4701988,2.1000001,9.09375,39.24375,watch_1
15099892388912,1.0193424,-12.26202,-17.197815,2.4226897,1.039081,-1.4701988,2.1000001,9.09375,39.24375,watch_1
15099913121099,1.0193424,-12.26202,-17.197815,2.4226897,1.039081,-1.4701988,3.7687502,10.875,38.831253,watch_1
15099911461880,0.6125626,-11.773884,-11.746964,2.4226897,1.039081,-1.4701988,3.7687502,10.875,38.831253,watch_1
15099906499120,0.6125626,-11.773884,-11.746964,4.169763,1.7073671,-2.1164937,3.7687502,10.875,38.831253,watch_1
15099923121047,0.6125626,-11.773884,-11.746964,4.169763,1.7073671,-2.1164937,0.675,12.618751,38.15625,watch_1
15099933120995,0.6125626,-11.773884,-11.746964,4.169763,1.7073671,-2.1164937,1.1625,14.718751,35.68125,watch_1
15099925573130,0.16749759,-11.376676,-7.7700934,6.6376567,1.6303982,-2.7188065,1.1625,14.718751,35.68125,watch_1
15099943120943,0.16749759,-11.376676,-7.7700934,6.6376567,1.6303982,-2.7188065,-0.16875,17.493752,35.831253,watch_1
15099930535891,0.16749759,-11.376676,-7.7700934,4.169763,1.7073671,-2.1164937,1.1625,14.718751,35.68125,watch_1
15099953120891,0.16749759,-11.376676,-7.7700934,6.6376567,1.6303982,-2.7188065,-3.2250001,20.1375,32.8875,watch_1
15099944646151,-0.85184485,-7.26102,-6.032904,9.766506,1.1099414,-3.123199,-3.2250001,20.1375,32.8875,watch_1
15099963120839,-0.85184485,-7.26102,-6.032904,9.766506,1.1099414,-3.123199,-3.2812502,21.7875,28.518751,watch_1
15099949608912,-0.85184485,-7.26102,-6.032904,9.766506,1.1099414,-3.123199,-3.2250001,20.1375,32.8875,watch_1
15099973120787,-0.85184485,-7.26102,-6.032904,9.766506,1.1099414,-3.123199,-4.74375,26.456251,26.00625,watch_1
15099963720162,-0.91884387,-2.7625136,-4.8269215,11.985167,0.54672396,-3.136638,-4.74375,26.456251,26.00625,watch_1
15099983120735,-0.91884387,-2.7625136,-4.8269215,11.985167,0.54672396,-3.136638,-4.8375,27.675001,21.65625,watch_1
15099968682922,-0.91884387,-2.7625136,-4.8269215,11.985167,0.54672396,-3.136638,-4.8375,27.675001,21.65625,watch_1
15099993120682,-0.91884387,-2.7625136,-4.8269215,11.985167,0.54672396,-3.136638,-6.4687505,28.556252,17.456251,watch_1
15099987755891,0.2009971,4.430311,-4.3722854,12.550828,-0.021380268,-2.575864,-6.4687505,28.556252,17.456251,watch_1
15099982793130,0.2009971,4.430311,-4.3722854,12.550828,-0.021380268,-2.575864,-6.4687505,28.556252,17.456251,watch_1
15100003120630,0.2009971,4.430311,-4.3722854,12.550828,-0.021380268,-2.575864,-7.4062505,33.393753,10.33125,watch_1
15100013120578,0.2009971,4.430311,-4.3722854,12.550828,-0.021380268,-2.575864,-8.53125,28.9125,8.606251,watch_1
15100006829901,1.9190438,8.976674,-2.0512471,11.932632,-0.26939136,-1.3626866,-8.53125,28.9125,8.606251,watch_1
15100001867141,1.9190438,8.976674,-2.0512471,11.932632,-0.26939136,-1.3626866,-8.53125,28.9125,8.606251,watch_1
15100023120526,1.9190438,8.976674,-2.0512471,11.932632,-0.26939136,-1.3626866,-8.137501,33.80625,0.46875003,watch_1
15100033120474,1.9190438,8.976674,-2.0512471,11.932632,-0.26939136,-1.3626866,-7.89375,32.49375,-2.2687502,watch_1
15100025902922,3.426522,10.24487,1.5092729,11.932632,-0.26939136,-1.3626866,-7.89375,32.49375,-2.2687502,watch_1
15100020940162,3.426522,10.24487,1.5092729,9.535599,-0.07391464,0.011759147,-7.89375,32.49375,-2.2687502,watch_1
15100043120422,3.426522,10.24487,1.5092729,9.535599,-0.07391464,0.011759147,-5.4187503,31.031252,-4.7625003,watch_1
15100053120370,3.426522,10.24487,1.5092729,9.535599,-0.07391464,0.011759147,-5.53125,31.462502,-5.9812503,watch_1
15100044976880,3.4504502,3.9038901,4.8305106,9.535599,-0.07391464,0.011759147,-5.53125,31.462502,-5.9812503,watch_1
15100040014120,3.4504502,3.9038901,4.8305106,5.9473796,0.66034484,0.8523091,-5.53125,31.462502,-5.9812503,watch_1
15100063120318,3.4504502,3.9038901,4.8305106,5.9473796,0.66034484,0.8523091,-7.5000005,31.837502,-9.150001,watch_1
15100073120266,3.4504502,3.9038901,4.8305106,5.9473796,0.66034484,0.8523091,-7.1250005,31.031252,-8.4375,watch_1
15100059057141,3.4504502,3.9038901,4.8305106,1.4306453,1.5277728,1.9042182,-7.1250005,31.031252,-8.4375,watch_1
15100064019901,-0.15314065,2.0901306,8.654242,1.4306453,1.5277728,1.9042182,-7.1250005,31.031252,-8.4375,watch_1
15100083120214,-0.15314065,2.0901306,8.654242,1.4306453,1.5277728,1.9042182,-3.0187502,34.40625,-8.887501,watch_1
15100083092922,-3.3020952,4.554738,9.549157,1.4306453,1.5277728,1.9042182,-3.0187502,34.40625,-8.887501,watch_1
15100078130162,-3.3020952,4.554738,9.549157,-2.937038,1.7745622,2.9439101,-2.34375,31.85625,-5.3625,watch_1
15100093120162,-3.3020952,4.554738,9.549157,-2.937038,1.7745622,2.9439101,-2.34375,31.85625,-5.3625,watch_1
15100103120110,-3.3020952,4.554738,9.549157,-2.937038,1.7745622,2.9439101,-0.91875005,33.54375,-2.7375002,watch_1
15100102166880,-2.5938199,-1.9298115,7.563114,-2.937038,1.7745622,2.9439101,-0.91875005,33.54375,-2.7375002,watch_1
15100097204120,-2.5938199,-1.9298115,7.563114,-6.549692,1.0684025,3.422828,-0.91875005,33.54375,-2.7375002,watch_1
15100113120057,-2.5938199,-1.9298115,7.563114,-6.549692,1.0684025,3.422828,0.46875003,33.375,0.4875,watch_1
15100123120005,-2.5938199,-1.9298115,7.563114,-6.549692,1.0684025,3.422828,0.112500004,35.268753,2.15625,watch_1
15100121239901,-0.9619147,-14.894125,3.8781674,-6.549692,1.0684025,3.422828,0.112500004,35.268753,2.15625,watch_1
15100116277141,-0.9619147,-14.894125,3.8781674,-9.518495,0.51251554,3.4338236,4.55625,32.4375,8.606251,watch_1
15100133119953,-0.9619147,-14.894125,3.8781674,-9.518495,0.51251554,3.4338236,4.55625,32.4375,8.606251,watch_1
15100143119901,-0.9619147,-14.894125,3.8781674,-9.518495,0.51251554,3.4338236,4.21875,33.225002,9.9375,watch_1
15100140313912,1.268196,-21.93381,-5.0422754,-12.218517,0.054366965,2.7887504,4.21875,33.225002,9.9375,watch_1
15100135351151,1.268196,-21.93381,-5.0422754,-12.218517,0.054366965,2.7887504,4.21875,33.225002,9.9375,watch_1
15100153119849,1.268196,-21.93381,-5.0422754,-12.218517,0.054366965,2.7887504,5.5125003,33.131252,15.337501,watch_1
15100163119797,1.268196,-21.93381,-5.0422754,-12.218517,0.054366965,2.7887504,5.175,31.968752,20.493752,watch_1
15100159386880,3.2350962,-7.2753773,-8.760722,-14.234371,-0.5247328,2.289063,5.175,31.968752,20.493752,watch_1
15100154424120,3.2350962,-7.2753773,-8.760722,-14.234371,-0.5247328,2.289063,8.15625,28.10625,27.31875,watch_1
15100173119745,3.2350962,-7.2753773,-8.760722,-14.234371,-0.5247328,2.289063,8.15625,28.10625,27.31875,watch_1
15100183119693,3.2350962,-7.2753773,-8.760722,-14.234371,-0.5247328,2.289063,6.7125,22.63125,30.300001,watch_1
15100178460891,-7.6713896,-2.9826534,-16.910675,-14.234371,-0.05070178,1.3972005,6.7125,22.63125,30.300001,watch_1
15100173498130,-7.6713896,-2.9826534,-16.910675,-14.916096,-0.05070178,1.3972005,6.7125,22.63125,30.300001,watch_1
15100193119641,-7.6713896,-2.9826534,-16.910675,-14.916096,-0.05070178,1.3972005,7.2375,18.487501,34.987503,watch_1
15100203119589,-7.6713896,-2.9826534,-16.910675,-14.916096,-0.05070178,1.3972005,7.2375,12.7875,36.84375,watch_1
15100197533912,-3.359523,-21.512672,-30.267412,-14.916096,-0.05070178,1.3972005,7.2375,12.7875,36.84375,watch_1
15100192571151,-3.359523,-21.512672,-30.267412,-12.103675,0.5931497,0.24755295,7.2375,12.7875,36.84375,watch_1
15100213119537,-3.359523,-21.512672,-30.267412,-12.103675,0.5931497,0.24755295,5.9812503,10.6125,37.93125,watch_1
15100223119485,-3.359523,-21.512672,-30.267412,-12.103675,0.5931497,0.24755295,4.5,6.4125004,40.5,watch_1
15100216607922,5.3407803,-25.456043,-24.36671,-12.103675,0.5931497,0.24755295,4.5,6.4125004,40.5,watch_1
15100211645162,5.3407803,-25.456043,-24.36671,-4.006051,1.3261875,0.03252855,4.5,6.4125004,40.5,watch_1
15100233119432,5.3407803,-25.456043,-24.36671,-4.006051,1.3261875,0.03252855,5.45625,7.14375,39.09375,watch_1
15100243119380,5.3407803,-25.456043,-24.36671,-4.006051,1.3261875,0.03252855,3.43125,8.981251,39.412502,watch_1
15100235680891,0.9379865,-15.832111,-19.226929,-4.006051,1.3261875,0.03252855,3.43125,8.981251,39.412502,watch_1
15100230718130,0.9379865,-15.832111,-19.226929,2.177122,1.6010766,-1.4164428,3.6375,10.6875,39.99375,watch_1
15100253119328,0.9379865,-15.832111,-19.226929,2.177122,1.6010766,-1.4164428,3.6375,10.6875,39.99375,watch_1
15100263119276,-0.19142582,-13.1282215,-12.445669,2.177122,1.6010766,-1.4164428,0.7875,12.50625,37.3125,watch_1
15100254723912,-0.19142582,-13.1282215,-12.445669,2.177122,1.6010766,-1.4164428,0.7875,12.50625,37.3125,watch_1
15100249761151,-0.19142582,-13.1282215,-12.445669,4.5375037,2.2437062,-2.277762,0.7875,12.50625,37.3125,watch_1
15100273119224,-0.19142582,-13.1282215,-12.445669,4.5375037,2.2437062,-2.277762,0.93750006,15.39375,35.5875,watch_1
15100283119172,-1.3878372,-10.989038,-7.8370924,4.5375037,2.2437062,-2.277762,-0.58125,16.29375,36.768753,watch_1
15100273796880,-1.3878372,-10.989038,-7.8370924,4.5375037,2.2437062,-2.277762,-0.58125,16.29375,36.768753,watch_1
15100268834120,-1.3878372,-10.989038,-7.8370924,7.3022776,2.1215334,-2.986365,-0.58125,16.29375,36.768753,watch_1
15100293119120,-1.3878372,-10.989038,-7.8370924,7.3022776,2.1215334,-2.986365,-1.8000001,19.78125,31.781252,watch_1
15100292870891,-2.536392,-5.7726846,-5.994619,10.538639,1.5241076,-3.429853,-1.8000001,19.78125,31.781252,watch_1
15100287908130,-2.536392,-5.7726846,-5.994619,10.538639,1.5241076,-3.429853,-1.8000001,19.78125,31.781252,watch_1
15100303119068,-2.536392,-5.7726846,-5.994619,10.538639,1.5241076,-3.429853,-4.4625,23.19375,28.237501,watch_1
15100313119016,-2.536392,-5.7726846,-5.994619,10.538639,1.5241076,-3.429853,-3.35625,25.987501,23.587502,watch_1
15100311943912,-1.7802601,-0.9631111,-5.965905,12.903908,0.8289435,-3.4420702,-3.35625,25.987501,23.587502,watch_1
15100306981151,-1.7802601,-0.9631111,-5.965905,12.903908,0.8289435,-3.4420702,-3.35625,25.987501,23.587502,watch_1
15100323118964,-1.7802601,-0.9631111,-5.965905,12.903908,0.8289435,-3.4420702,-5.26875,26.6625,20.681252,watch_1
15100333118912,-1.7802601,-0.9631111,-5.965905,12.903908,0.8289435,-3.4420702,-7.9687505,30.581251,12.8625,watch_1
15100326055162,-1.7802601,-0.9631111,-5.965905,13.646719,0.15699224,-2.937496,-8.55,31.44375,8.793751,watch_1
15100343118860,-1.7802601,-0.9631111,-5.965905,13.646719,0.15699224,-2.937496,-8.55,31.44375,8.793751,watch_1
15100331017922,0.29671,4.4925246,-3.458227,13.646719,0.15699224,-2.937496,-8.55,31.44375,8.793751,watch_1
15100353118807,0.29671,4.4925246,-3.458227,13.646719,0.15699224,-2.937496,-8.1,33.412502,5.15625,watch_1
15100350090891,2.115255,11.288141,1.1694921,13.646719,0.15699224,-2.937496,-8.1,33.412502,5.15625,watch_1
15100363118755,2.115255,11.288141,1.1694921,11.78969,-0.16798781,-1.8342742,-10.59375,33.375,-0.63750005,watch_1
15100345128130,2.115255,11.288141,1.1694921,11.78969,-0.16798781,-1.8342742,-10.59375,33.375,-0.63750005,watch_1
15100373118703,2.115255,11.288141,1.1694921,11.78969,-0.16798781,-1.8342742,-10.425,32.5875,-2.71875,watch_1
15100369164901,2.589034,11.020144,3.2129626,11.78969,-0.16798781,-1.8342742,-10.425,32.5875,-2.71875,watch_1
15100364202141,2.589034,11.020144,3.2129626,7.783639,-0.1386663,-0.45371982,-10.425,32.5875,-2.71875,watch_1
15100383118651,2.589034,11.020144,3.2129626,7.783639,-0.1386663,-0.45371982,-10.1625,32.68125,-5.45625,watch_1
15100393118599,2.589034,11.020144,3.2129626,7.783639,-0.1386663,-0.45371982,-9.50625,32.23125,-6.9375005,watch_1
15100383275162,2.589034,11.020144,3.2129626,4.065916,0.42943794,0.5676461,-9.50625,32.23125,-6.9375005,watch_1
15100403118547,2.5698915,-0.36011982,3.1459637,4.065916,0.42943794,0.5676461,-8.64375,30.993752,-9.4875,watch_1
15100388237922,2.5698915,-0.36011982,3.1459637,4.065916,0.42943794,0.5676461,-8.64375,30.993752,-9.4875,watch_1
15100413118495,2.5698915,-0.36011982,3.1459637,4.065916,0.42943794,0.5676461,-8.90625,31.556252,-11.025001,watch_1
15100407311880,0.8662018,0.31465617,5.27079,1.7018692,1.3115267,1.7417282,-8.90625,31.556252,-11.025001,watch_1
15100402349120,0.8662018,0.31465617,5.27079,1.7018692,1.3115267,1.7417282,-8.90625,31.556252,-11.025001,watch_1
15100423118443,0.8662018,0.31465617,5.27079,1.7018692,1.3115267,1.7417282,-8.025001,32.662502,-11.025001,watch_1
15100433118391,0.8662018,0.31465617,5.27079,1.7018692,1.3115267,1.7417282,-4.6875,33.24375,-11.56875,watch_1
15100421422141,-0.90448695,6.1005015,7.0462646,-0.45692685,1.8808527,2.7166684,-4.6875,33.24375,-11.56875,watch_1
15100426384901,-0.90448695,6.1005015,7.0462646,-0.45692685,1.8808527,2.7166684,-4.6875,33.24375,-11.56875,watch_1
15100443118339,-0.90448695,6.1005015,7.0462646,-0.45692685,1.8808527,2.7166684,-5.08125,34.85625,-10.03125,watch_1
15100453118287,-0.90448695,6.1005015,7.0462646,-0.45692685,1.8808527,2.7166684,-4.5750003,33.91875,-9.01875,watch_1
15100445427922,-1.3686945,2.3198416,6.7256265,-0.45692685,1.8808527,2.7166684,-4.5750003,33.91875,-9.01875,watch_1
15100440465162,-1.3686945,2.3198416,6.7256265,-3.4159558,1.6682717,3.3580763,-4.5750003,33.91875,-9.01875,watch_1
15100463118235,-1.3686945,2.3198416,6.7256265,-3.4159558,1.6682717,3.3580763,-0.76875,35.325,-5.9625,watch_1
15100473118182,-1.3686945,2.3198416,6.7256265,-3.4159558,1.6682717,3.3580763,1.40625,35.53125,-2.0812502,watch_1
15100464501880,-1.253839,-7.6390862,4.4093738,-3.4159558,1.6682717,3.3580763,1.40625,35.53125,-2.0812502,watch_1
15100459539120,-1.253839,-7.6390862,4.4093738,-6.2332644,1.2247839,3.702604,1.40625,35.53125,-2.0812502,watch_1
15100483118130,-1.253839,-7.6390862,4.4093738,-6.2332644,1.2247839,3.702604,1.5937501,35.193752,1.1625,watch_1
15100493118078,-1.253839,-7.6390862,4.4093738,-6.2332644,1.2247839,3.702604,2.6437502,35.006252,2.7562501,watch_1
15100478612141,-1.253839,-7.6390862,4.4093738,-8.38473,0.90957767,3.703826,2.6437502,35.006252,2.7562501,watch_1
15100503118026,-1.7324036,-16.703098,-0.16570297,-8.38473,0.90957767,3.703826,4.6312504,36.1875,6.20625,watch_1
15100483574901,-1.7324036,-16.703098,-0.16570297,-8.38473,0.90957767,3.703826,4.6312504,36.1875,6.20625,watch_1
15100502648912,-1.4452649,-20.033907,-7.344171,-8.38473,0.90957767,3.703826,4.6312504,36.1875,6.20625,watch_1
15100497686151,-1.4452649,-20.033907,-7.344171,-9.7970495,0.4477639,3.139387,4.6312504,36.1875,6.20625,watch_1
15100513117974,-1.4452649,-20.033907,-7.344171,-9.7970495,0.4477639,3.139387,5.64375,30.300001,16.050001,watch_1
15100523117922,-1.4452649,-20.033907,-7.344171,-9.7970495,0.4477639,3.139387,5.64375,30.300001,16.050001,watch_1
15100516759120,-1.4452649,-20.033907,-7.344171,-12.499516,0.41233373,2.32938,5.64375,30.300001,16.050001,watch_1
15100521721880,0.08135597,-13.597215,-9.483355,-12.499516,0.41233373,2.32938,5.64375,30.300001,16.050001,watch_1
15100533117870,0.08135597,-13.597215,-9.483355,-12.499516,0.41233373,2.32938,5.9437504,29.38125,21.13125,watch_1
15100543117818,0.08135597,-13.597215,-9.483355,-12.499516,0.41233373,2.32938,6.0937505,25.893751,25.987501,watch_1
15100553117766,0.08135597,-13.597215,-9.483355,-15.232524,0.8081741,1.1381938,5.45625,20.925001,29.60625,watch_1
15100535833130,0.08135597,-13.597215,-9.483355,-15.232524,0.8081741,1.1381938,5.45625,20.925001,29.60625,watch_1
15100540795891,-1.052842,-10.242477,-14.206786,-15.232524,0.8081741,1.1381938,5.45625,20.925001,29.60625,watch_1
15100563117714,-1.052842,-10.242477,-14.206786,-15.232524,0.8081741,1.1381938,7.8187504,15.431251,36.075,watch_1
15100554906151,-1.9573289,-26.977879,-23.132015,-12.879473,1.1441498,0.11071924,7.8187504,15.431251,36.075,watch_1
