# Session ID: 20250816_094326
# Start Time: 1755330206061
# Device ID: watch_1
# Sample Count: 1283
# Generated by Watch IMU Recorder
timestamp,accel_x,accel_y,accel_z,gyro_x,gyro_y,gyro_z,mag_x,mag_y,mag_z,watch_name
15273298902954,1.0336994,-7.0504518,7.1946197,-0.012217295,0.017715078,-0.039553493,-3.4687502,27.375002,-7.51875,watch_1
15273317973215,1.0336994,-7.0504518,7.1946197,-0.012217295,0.017715078,-0.039553493,-3.4687502,27.375002,-7.51875,watch_1
15273260762433,1.0336994,-7.0504518,7.1946197,-0.012217295,0.017715078,-0.039553493,-3.4687502,27.375002,-7.51875,watch_1
15273337029204,1.1389836,-7.036095,6.75434,-0.012217295,0.017715078,-0.039553493,-3.4687502,27.375002,-7.51875,watch_1
15273356102277,1.1389836,-7.036095,6.75434,-0.012217295,0.017715078,-0.039553493,-3.4687502,27.375002,-7.51875,watch_1
15273375176235,1.1916257,-6.99781,6.821339,-0.012217295,0.017715078,-0.039553493,-3.4687502,27.375002,-7.51875,watch_1
15273394249256,1.1006985,-6.9930243,7.0223365,-0.012217295,0.017715078,-0.039553493,-3.4687502,27.375002,-7.51875,watch_1
15273389286496,1.1006985,-6.9930243,7.0223365,0.06108648,0.04092794,0.0056504994,-3.4687502,27.375002,-7.51875,watch_1
15273425015767,1.1006985,-6.9930243,7.0223365,0.06108648,0.04092794,0.0056504994,1.10625,27.35625,-17.8875,watch_1
15273413323267,0.94755775,-7.055238,7.151549,0.07208204,0.043371398,0.011759147,1.10625,27.35625,-17.8875,watch_1
15273408360506,0.94755775,-7.055238,7.151549,0.07208204,0.043371398,0.011759147,1.10625,27.35625,-17.8875,watch_1
15273435015715,0.94755775,-7.055238,7.151549,0.07208204,0.043371398,0.011759147,2.325,27.69375,-18.9375,watch_1
15273432396235,0.9236295,-7.0504518,7.1946197,0.07208204,0.043371398,0.011759147,2.325,27.69375,-18.9375,watch_1
15273427433475,0.9236295,-7.0504518,7.1946197,0.09651663,0.028710645,0.014202606,2.325,27.69375,-18.9375,watch_1
15273445015662,0.9236295,-7.0504518,7.1946197,0.09651663,0.028710645,0.014202606,2.2875001,23.90625,-14.512501,watch_1
15273455015610,0.9236295,-7.0504518,7.1946197,0.09651663,0.028710645,0.014202606,1.8750001,25.85625,-15.468751,watch_1
15273446507485,1.0336994,-7.227521,6.8835526,0.10995566,0.033597562,-0.0029016077,1.8750001,25.85625,-15.468751,watch_1
15273451470246,1.0336994,-7.227521,6.8835526,0.10995566,0.033597562,-0.0029016077,1.8750001,25.85625,-15.468751,watch_1
15273465015558,1.0336994,-7.227521,6.8835526,0.10995566,0.033597562,-0.0029016077,0.7875,25.10625,-13.500001,watch_1
15273475015506,1.0336994,-7.227521,6.8835526,0.10995566,0.033597562,-0.0029016077,0.975,22.893751,-14.85,watch_1
15273470513267,1.1533405,-7.0983086,6.7782683,0.10995566,0.033597562,-0.0029016077,0.975,22.893751,-14.85,watch_1
15273465550506,1.1533405,-7.0983086,6.7782683,0.13927718,0.048258316,-0.013897174,0.975,22.893751,-14.85,watch_1
15273485015454,1.1533405,-7.0983086,6.7782683,0.13927718,0.048258316,-0.013897174,2.625,27.393751,-16.85625,watch_1
15273495015402,1.1533405,-7.0983086,6.7782683,0.13927718,0.048258316,-0.013897174,2.1000001,26.775002,-17.4375,watch_1
15273489586235,1.0719845,-6.859026,7.146763,0.14172062,0.07147118,0.0019853106,2.1000001,26.775002,-17.4375,watch_1
15273484623475,1.0719845,-6.859026,7.146763,0.14172062,0.07147118,0.0019853106,2.1000001,26.775002,-17.4375,watch_1
15273505015350,1.0719845,-6.859026,7.146763,0.14172062,0.07147118,0.0019853106,0.09375,27.975,-19.81875,watch_1
15273515015298,1.0719845,-6.859026,7.146763,0.14172062,0.07147118,0.0019853106,0.375,24.562502,-16.6875,watch_1
15273508660246,0.86141616,-6.8015985,7.2616186,0.14172062,0.07147118,0.0019853106,0.375,24.562502,-16.6875,watch_1
15273503697485,0.86141616,-6.8015985,7.2616186,0.019547673,0.06780599,0.011759147,0.375,24.562502,-16.6875,watch_1
15273525015246,0.86141616,-6.8015985,7.2616186,0.019547673,0.06780599,0.011759147,1.21875,25.687502,-18.45,watch_1
15273535015194,0.86141616,-6.8015985,7.2616186,0.019547673,0.06780599,0.011759147,1.1812501,26.831251,-18.69375,watch_1
15273527733267,0.8422736,-7.0983086,7.1228347,0.019547673,0.06780599,0.011759147,1.1812501,26.831251,-18.69375,watch_1
15273522770506,0.8422736,-7.0983086,7.1228347,-0.11728604,0.04214967,0.022754714,1.1812501,26.831251,-18.69375,watch_1
15273545015142,0.8422736,-7.0983086,7.1228347,-0.11728604,0.04214967,0.022754714,1.9687501,26.906252,-17.60625,watch_1
15273555015090,0.8422736,-7.0983086,7.1228347,-0.11728604,0.04214967,0.022754714,0.43125,26.400002,-16.706251,watch_1
15273546807277,0.89491564,-7.131808,6.921838,-0.17470732,0.04092794,0.03008509,0.43125,26.400002,-16.706251,watch_1
15273541844517,0.89491564,-7.131808,6.921838,-0.17470732,0.04092794,0.03008509,0.43125,26.400002,-16.706251,watch_1
15273565015037,0.89491564,-7.131808,6.921838,-0.17470732,0.04092794,0.03008509,1.1812501,26.831251,-19.29375,watch_1
15273575014985,0.89491564,-7.131808,6.921838,-0.17470732,0.04092794,0.03008509,0.58125,26.587502,-17.868752,watch_1
15273565880246,0.94755775,-7.213164,6.7351975,-0.07696896,0.03970621,0.050854493,0.58125,26.587502,-17.868752,watch_1
15273560917485,0.94755775,-7.213164,6.7351975,-0.07696896,0.03970621,0.050854493,0.58125,26.587502,-17.868752,watch_1
15273585014933,0.94755775,-7.213164,6.7351975,-0.07696896,0.03970621,0.050854493,0.41250002,26.41875,-17.737501,watch_1
15273584954256,0.7752745,-7.155736,6.83091,0.07086031,0.06291907,0.06918044,0.41250002,26.41875,-17.737501,watch_1
15273579991496,0.7752745,-7.155736,6.83091,0.07086031,0.06291907,0.06918044,0.41250002,26.41875,-17.737501,watch_1
15273595014881,0.7752745,-7.155736,6.83091,0.07086031,0.06291907,0.06918044,0.99375004,27.768751,-18.09375,watch_1
15273605014829,0.7752745,-7.155736,6.83091,0.07086031,0.06291907,0.06918044,2.5500002,24.768751,-13.837501,watch_1
15273599064517,0.7752745,-7.155736,6.83091,0.15149446,0.034819294,0.0716239,2.5500002,24.768751,-13.837501,watch_1
15273615014777,0.7752745,-7.155736,6.83091,0.15149446,0.034819294,0.0716239,-0.075,26.23125,-18.206251,watch_1
15273604027277,0.7322037,-7.055238,7.0654073,0.15149446,0.034819294,0.0716239,-0.075,26.23125,-18.206251,watch_1
15273625014725,0.7322037,-7.055238,7.0654073,0.15149446,0.034819294,0.0716239,2.0812502,25.3875,-18.45,watch_1
15273623101235,0.8327023,-7.1270223,7.228119,0.15149446,0.034819294,0.0716239,2.0812502,25.3875,-18.45,watch_1
15273618138475,0.8327023,-7.1270223,7.228119,0.22357652,0.011606431,0.0923933,2.0812502,25.3875,-18.45,watch_1
15273635014673,0.8327023,-7.1270223,7.228119,0.22357652,0.011606431,0.0923933,3.0937502,26.6625,-19.63125,watch_1
15273645014621,0.8327023,-7.1270223,7.228119,0.22357652,0.011606431,0.0923933,0.63750005,27.000002,-17.175001,watch_1
15273637211496,0.9236295,-6.9116683,7.0654073,0.16615522,0.025045456,0.09117157,0.63750005,27.000002,-17.175001,watch_1
15273642174256,0.9236295,-6.9116683,7.0654073,0.16615522,0.025045456,0.09117157,0.63750005,27.000002,-17.175001,watch_1
15273655014569,0.9236295,-6.9116683,7.0654073,0.16615522,0.025045456,0.09117157,1.1437501,24.6375,-16.3125,watch_1
15273665014517,0.9236295,-6.9116683,7.0654073,0.16615522,0.025045456,0.09117157,1.8937501,23.325,-16.237501,watch_1
15273656254517,0.9236295,-6.9116683,7.0654073,0.042760536,0.017715078,0.10827578,1.8937501,23.325,-16.237501,watch_1
15273661217277,0.81834537,-6.9930243,6.9361944,0.042760536,0.017715078,0.10827578,1.8937501,23.325,-16.237501,watch_1
15273675014465,0.81834537,-6.9930243,6.9361944,0.042760536,0.017715078,0.10827578,2.8125,25.0125,-16.29375,watch_1
15273685014412,0.81834537,-6.9930243,6.9361944,0.042760536,0.017715078,0.10827578,4.18125,27.093752,-19.5375,watch_1
15273680291235,0.8662018,-7.4189467,6.9074807,-0.0061086477,0.0030543238,0.11438443,4.18125,27.093752,-19.5375,watch_1
15273675328475,0.8662018,-7.4189467,6.9074807,-0.0061086477,0.0030543238,0.11438443,4.18125,27.093752,-19.5375,watch_1
15273695014360,0.8662018,-7.4189467,6.9074807,-0.0061086477,0.0030543238,0.11438443,1.4250001,26.625002,-20.98125,watch_1
15273705014308,0.8662018,-7.4189467,6.9074807,-0.0061086477,0.0030543238,0.11438443,1.5,28.743752,-20.737501,watch_1
15273699364256,0.9954142,-6.873383,6.605985,-0.0061086477,0.0030543238,0.11438443,1.5,28.743752,-20.737501,watch_1
15273694401496,0.9954142,-6.873383,6.605985,0.106290475,0.04459313,0.1339321,1.5,28.743752,-20.737501,watch_1
15273715014256,0.9954142,-6.873383,6.605985,0.106290475,0.04459313,0.1339321,1.5,28.781252,-21.768751,watch_1
15273725014204,0.9954142,-6.873383,6.605985,0.106290475,0.04459313,0.1339321,0.43125,28.650002,-22.1625,watch_1
15273718438267,0.5982057,-7.064809,6.75434,0.19914192,0.091018856,0.1375973,1.8750001,30.937502,-21.6375,watch_1
15273713475506,0.5982057,-7.064809,6.75434,0.19914192,0.091018856,0.1375973,1.8750001,30.937502,-21.6375,watch_1
15273735014152,0.5982057,-7.064809,6.75434,0.19914192,0.091018856,0.1375973,1.8750001,30.937502,-21.6375,watch_1
15273745014100,0.5982057,-7.064809,6.75434,0.19914192,0.091018856,0.1375973,1.2750001,29.437502,-21.4125,watch_1
15273737511235,0.65084773,-7.342376,6.7686973,0.19914192,0.091018856,0.1375973,1.2750001,29.437502,-21.4125,watch_1
15273732548475,0.65084773,-7.342376,6.7686973,0.112399116,0.10445788,0.07651082,1.2750001,29.437502,-21.4125,watch_1
15273755014048,0.65084773,-7.342376,6.7686973,0.112399116,0.10445788,0.07651082,0.13125001,28.593752,-21.46875,watch_1
15273765013996,0.65084773,-7.342376,6.7686973,0.112399116,0.10445788,0.07651082,1.6500001,28.95,-22.2,watch_1
15273756585246,0.7752745,-7.1653075,6.835696,0.08185588,0.13255766,0.075289086,1.6500001,28.95,-22.2,watch_1
15273751622485,0.7752745,-7.1653075,6.835696,0.08185588,0.13255766,0.075289086,1.6500001,28.95,-22.2,watch_1
15273775013944,0.7752745,-7.1653075,6.835696,0.08185588,0.13255766,0.075289086,1.4250001,28.2,-22.0125,watch_1
15273785013892,0.7752745,-7.1653075,6.835696,0.08185588,0.13255766,0.075289086,2.1750002,29.41875,-21.16875,watch_1
15273775658267,0.66999036,-7.1413794,7.036693,0.09773836,0.15332706,0.06062833,2.1750002,29.41875,-21.16875,watch_1
15273770695506,0.66999036,-7.1413794,7.036693,0.09773836,0.15332706,0.06062833,2.1750002,29.41875,-21.16875,watch_1
15273795013840,0.66999036,-7.1413794,7.036693,0.09773836,0.15332706,0.06062833,2.5500002,28.931252,-22.5375,watch_1
15273794732277,0.55513483,-7.0600233,7.012765,0.08796453,0.16432263,0.054519683,2.5500002,28.931252,-22.5375,watch_1
15273789769517,0.55513483,-7.0600233,7.012765,0.08796453,0.16432263,0.054519683,2.5500002,28.931252,-22.5375,watch_1
15273805013787,0.55513483,-7.0600233,7.012765,0.08796453,0.16432263,0.054519683,0.3375,29.19375,-22.368752,watch_1
15273815013735,0.55513483,-7.0600233,7.012765,0.08796453,0.16432263,0.054519683,3.0,30.393751,-22.63125,watch_1
15273808842485,0.55513483,-7.0600233,7.012765,0.086742796,0.16554436,0.06551525,3.0,30.393751,-22.63125,watch_1
15273825013683,0.57906306,-6.9786673,7.1132636,0.086742796,0.16554436,0.06551525,3.6375,27.91875,-21.581251,watch_1
15273813805246,0.57906306,-6.9786673,7.1132636,0.086742796,0.16554436,0.06551525,3.6375,27.91875,-21.581251,watch_1
15273835013631,0.57906306,-6.9786673,7.1132636,0.086742796,0.16554436,0.06551525,0.112500004,28.612501,-22.78125,watch_1
15273827885506,0.5886344,-6.863812,7.0175505,0.07696896,0.16554436,0.080176,0.112500004,28.612501,-22.78125,watch_1
15273832848267,0.5886344,-6.863812,7.0175505,0.07696896,0.16554436,0.080176,0.112500004,28.612501,-22.78125,watch_1
15273845013579,0.5886344,-6.863812,7.0175505,0.07696896,0.16554436,0.080176,2.2687502,30.431252,-22.275002,watch_1
15273855013527,0.5886344,-6.863812,7.0175505,0.07696896,0.16554436,0.080176,0.58125,28.81875,-22.59375,watch_1
15273846958475,0.53599226,-6.9738817,6.960123,0.08796453,0.15699224,0.09483676,0.58125,28.81875,-22.59375,watch_1
15273851921235,0.53599226,-6.9738817,6.960123,0.08796453,0.15699224,0.09483676,0.58125,28.81875,-22.59375,watch_1
15273865013475,0.53599226,-6.9738817,6.960123,0.08796453,0.15699224,0.09483676,2.30625,28.0125,-21.300001,watch_1
15273875013423,0.53599226,-6.9738817,6.960123,0.08796453,0.15699224,0.09483676,3.9375002,28.125002,-23.025002,watch_1
15273866032485,0.52163535,-6.954739,6.969694,0.14294235,0.14966187,0.107054055,3.9375002,28.125002,-23.025002,watch_1
15273870995246,0.52163535,-6.954739,6.969694,0.14294235,0.14966187,0.107054055,3.9375002,28.125002,-23.025002,watch_1
15273885013371,0.52163535,-6.954739,6.969694,0.14294235,0.14966187,0.107054055,1.5375,29.212502,-21.806252,watch_1
15273895013319,0.52163535,-6.954739,6.969694,0.14294235,0.14966187,0.107054055,0.99375004,28.275002,-21.487501,watch_1
15273890068267,0.55034924,-6.8542404,7.079764,0.14294235,0.14966187,0.107054055,0.99375004,28.275002,-21.487501,watch_1
15273885105506,0.55034924,-6.8542404,7.079764,0.19181155,0.13500112,0.119271345,0.99375004,28.275002,-21.487501,watch_1
15273905013267,0.55034924,-6.8542404,7.079764,0.19181155,0.13500112,0.119271345,3.35625,29.75625,-23.53125,watch_1
15273915013215,0.55034924,-6.8542404,7.079764,0.19181155,0.13500112,0.119271345,2.23125,28.893751,-23.00625,watch_1
15273904179517,0.6029913,-6.739385,7.094121,0.15760311,0.11056653,0.12904519,2.23125,28.893751,-23.00625,watch_1
15273909142277,0.6029913,-6.739385,7.094121,0.15760311,0.11056653,0.12904519,2.90625,29.362501,-21.225,watch_1
15273925013162,0.6029913,-6.739385,7.094121,0.15760311,0.11056653,0.12904519,2.90625,29.362501,-21.225,watch_1
15273935013110,0.6029913,-6.739385,7.094121,0.15760311,0.11056653,0.12904519,0.41250002,28.331251,-21.112501,watch_1
15273928215246,0.5886344,-6.7058854,7.027122,0.15760311,0.11056653,0.12904519,0.41250002,28.331251,-21.112501,watch_1
15273923252485,0.5886344,-6.7058854,7.027122,0.100181825,0.091018856,0.14004076,1.7625,30.45,-25.3875,watch_1
15273945013058,0.5886344,-6.7058854,7.027122,0.100181825,0.091018856,0.14004076,1.7625,30.45,-25.3875,watch_1
15273955013006,0.5886344,-6.7058854,7.027122,0.100181825,0.091018856,0.14004076,1.4250001,26.962502,-23.04375,watch_1
15273947289256,0.5599205,-6.7441707,6.960123,0.100181825,0.091018856,0.14004076,1.4250001,26.962502,-23.04375,watch_1
15273942326496,0.5599205,-6.7441707,6.960123,0.046425723,0.07269291,0.14737113,1.4250001,26.962502,-23.04375,watch_1
15273965012954,0.5599205,-6.7441707,6.960123,0.046425723,0.07269291,0.14737113,3.1125002,28.556252,-21.69375,watch_1
15273975012902,0.5599205,-6.7441707,6.960123,0.046425723,0.07269291,0.14737113,2.41875,26.5125,-23.175001,watch_1
15273966362277,0.5694918,-6.7585278,6.931409,0.046425723,0.07269291,0.14737113,2.41875,26.5125,-23.175001,watch_1
15273961399517,0.5694918,-6.7585278,6.931409,0.03054324,0.04703659,0.1547015,2.41875,26.5125,-23.175001,watch_1
15273985012850,0.5694918,-6.7585278,6.931409,0.03054324,0.04703659,0.1547015,4.275,28.143751,-21.375,watch_1
15273995012798,0.5694918,-6.7585278,6.931409,0.03054324,0.04703659,0.1547015,3.4875002,26.625002,-21.768751,watch_1
15273980473475,0.57427746,-6.8015985,6.945766,0.05742129,0.033597562,0.1583667,3.4875002,26.625002,-21.768751,watch_1
15273985436235,0.57427746,-6.8015985,6.945766,0.05742129,0.033597562,0.1583667,3.4875002,26.625002,-21.768751,watch_1
15274005012746,0.57427746,-6.8015985,6.945766,0.05742129,0.033597562,0.1583667,4.875,26.475,-19.40625,watch_1
15274004509256,0.5312066,-6.7441707,7.0223365,0.05742129,0.033597562,0.1583667,4.875,26.475,-19.40625,watch_1
15273999546496,0.5312066,-6.7441707,7.0223365,0.06108648,0.018936807,0.15347977,4.875,26.475,-19.40625,watch_1
15274015012694,0.5312066,-6.7441707,7.0223365,0.06108648,0.018936807,0.15347977,3.3750002,28.143751,-20.90625,watch_1
15274025012642,0.5312066,-6.7441707,7.0223365,0.06108648,0.018936807,0.15347977,3.075,28.125002,-21.225,watch_1
15274023552277,0.55513483,-6.586244,6.988837,0.032986697,0.011606431,0.15225805,3.075,28.125002,-21.225,watch_1
15274018589517,0.55513483,-6.586244,6.988837,0.032986697,0.011606431,0.15225805,3.0187502,26.268751,-21.337502,watch_1
15274035012590,0.55513483,-6.586244,6.988837,0.032986697,0.011606431,0.15225805,3.0187502,26.268751,-21.337502,watch_1
15274045012537,0.55513483,-6.586244,6.988837,0.032986697,0.011606431,0.15225805,3.6000001,29.062502,-22.125,watch_1
15274042626235,0.5072784,-6.806384,7.070193,0.0024434591,0.0030543238,0.14859286,3.6000001,29.062502,-22.125,watch_1
15274037663475,0.5072784,-6.806384,7.070193,0.0024434591,0.0030543238,0.14859286,3.6000001,29.062502,-22.125,watch_1
15274055012485,0.5072784,-6.806384,7.070193,0.0024434591,0.0030543238,0.14859286,2.6625001,27.4125,-23.38125,watch_1
15274065012433,0.5072784,-6.806384,7.070193,0.0024434591,0.0030543238,0.14859286,2.7562501,29.5125,-22.425001,watch_1
15274061699256,0.4977071,-6.806384,7.0989065,0.0024434591,0.0030543238,0.14859286,2.7562501,29.5125,-22.425001,watch_1
15274056736496,0.4977071,-6.806384,7.0989065,-0.03176497,-0.0018325944,0.12049308,2.025,28.44375,-22.837502,watch_1
15274075012381,0.4977071,-6.806384,7.0989065,-0.03176497,-0.0018325944,0.12049308,2.025,28.44375,-22.837502,watch_1
15274085012329,0.4977071,-6.806384,7.0989065,-0.03176497,-0.0018325944,0.12049308,3.7687502,29.23125,-23.00625,watch_1
15274080773267,0.4546363,-6.658029,7.1659055,-0.03176497,-0.0018325944,0.12049308,3.7687502,29.23125,-23.00625,watch_1
15274075810506,0.4546363,-6.658029,7.1659055,-0.019547673,0.0042760535,0.113162704,3.7687502,29.23125,-23.00625,watch_1
15274095012277,0.4546363,-6.658029,7.1659055,-0.019547673,0.0042760535,0.113162704,3.7875001,29.7,-24.6375,watch_1
15274105012225,0.4546363,-6.658029,7.1659055,-0.019547673,0.0042760535,0.113162704,1.66875,27.825,-22.237501,watch_1
15274099846235,0.42592242,-6.686743,7.151549,-0.019547673,0.0042760535,0.113162704,1.66875,27.825,-22.237501,watch_1
15274094883475,0.42592242,-6.686743,7.151549,-0.019547673,0.020158539,0.0923933,1.66875,27.825,-22.237501,watch_1
15274115012173,0.42592242,-6.686743,7.151549,-0.019547673,0.020158539,0.0923933,3.525,28.500002,-23.400002,watch_1
15274125012121,0.42592242,-6.686743,7.151549,-0.019547673,0.020158539,0.0923933,3.7125,28.650002,-22.21875,watch_1
15274118920246,0.3397808,-6.710671,7.285547,-0.020769402,0.028710645,0.081397735,3.7125,28.650002,-22.21875,watch_1
15274113957485,0.3397808,-6.710671,7.285547,-0.020769402,0.028710645,0.081397735,3.7125,28.650002,-22.21875,watch_1
15274135012069,0.3397808,-6.710671,7.285547,-0.020769402,0.028710645,0.081397735,2.625,28.5375,-23.79375,watch_1
15274145012017,0.3397808,-6.710671,7.285547,-0.020769402,0.028710645,0.081397735,3.2625,28.743752,-22.875,watch_1
15274137993267,0.23928227,-6.5718875,7.3956165,-0.020769402,0.028710645,0.081397735,3.2625,28.743752,-22.875,watch_1
15274133030506,0.23928227,-6.5718875,7.3956165,-0.018325943,0.031154104,0.081397735,3.2625,28.743752,-22.875,watch_1
15274155011965,0.23928227,-6.5718875,7.3956165,-0.018325943,0.031154104,0.081397735,3.2250001,26.8875,-22.10625,watch_1
15274165011912,0.23928227,-6.5718875,7.3956165,-0.018325943,0.031154104,0.081397735,4.70625,28.050001,-21.0375,watch_1
15274152104517,0.13399807,-6.6149583,7.4291162,-0.019547673,0.032375835,0.080176,4.70625,28.050001,-21.0375,watch_1
15274157067277,0.13399807,-6.6149583,7.4291162,-0.019547673,0.032375835,0.080176,4.70625,28.050001,-21.0375,watch_1
15274175011860,0.13399807,-6.6149583,7.4291162,-0.019547673,0.032375835,0.080176,3.7875001,29.212502,-21.975,watch_1
15274185011808,0.13399807,-6.6149583,7.4291162,-0.019547673,0.032375835,0.080176,4.2375,26.268751,-20.325,watch_1
15274176140246,0.13399807,-6.7537417,7.3812594,-0.023212861,0.033597562,0.06185006,4.2375,26.268751,-20.325,watch_1
15274171177485,0.13399807,-6.7537417,7.3812594,-0.023212861,0.033597562,0.06185006,4.2375,26.268751,-20.325,watch_1
15274195011756,0.13399807,-6.7537417,7.3812594,-0.023212861,0.033597562,0.06185006,3.6375,25.087502,-21.45,watch_1
15274205011704,0.13399807,-6.7537417,7.3812594,-0.023212861,0.033597562,0.06185006,3.5625002,28.781252,-23.118752,watch_1
15274190220506,0.13399807,-6.7537417,7.3812594,0.014660755,0.043371398,0.06062833,3.5625002,28.781252,-23.118752,watch_1
15274195183267,0.17228323,-6.600601,7.443473,0.014660755,0.043371398,0.06062833,3.5625002,28.781252,-23.118752,watch_1
15274215011652,0.17228323,-6.600601,7.443473,0.014660755,0.043371398,0.06062833,4.7625003,28.800001,-23.1375,watch_1
15274209294517,0.17228323,-6.600601,7.443473,0.036651887,0.055588696,0.06185006,4.7625003,28.800001,-23.1375,watch_1
15274225011600,0.17228323,-6.600601,7.443473,0.036651887,0.055588696,0.06185006,4.14375,30.16875,-24.206251,watch_1
15274214257277,0.11964113,-6.524031,7.4865437,0.036651887,0.055588696,0.06185006,4.14375,30.16875,-24.206251,watch_1
15274235011548,0.11964113,-6.524031,7.4865437,0.036651887,0.055588696,0.06185006,3.16875,27.73125,-22.050001,watch_1
15274233330246,0.06699903,-6.6484575,7.4195447,0.036651887,0.055588696,0.06185006,3.16875,27.73125,-22.050001,watch_1
15274228367485,0.06699903,-6.6484575,7.4195447,0.028099779,0.056810424,0.056963142,3.16875,27.73125,-22.050001,watch_1
15274245011496,0.06699903,-6.6484575,7.4195447,0.028099779,0.056810424,0.056963142,3.4125001,28.931252,-24.0375,watch_1
15274255011444,0.06699903,-6.6484575,7.4195447,0.028099779,0.056810424,0.056963142,3.8437502,27.093752,-21.618752,watch_1
15274252404256,0.06699903,-6.6628146,7.472187,0.028099779,0.056810424,0.056963142,3.8437502,27.093752,-21.618752,watch_1
15274247441496,0.06699903,-6.6628146,7.472187,0.047647454,0.054366965,0.052076224,3.8437502,27.093752,-21.618752,watch_1
15274265011392,0.06699903,-6.6628146,7.472187,0.047647454,0.054366965,0.052076224,4.4812503,29.062502,-23.925001,watch_1
15274275011340,0.06699903,-6.6628146,7.472187,0.047647454,0.054366965,0.052076224,4.3500004,28.85625,-21.73125,watch_1
15274271477277,-0.014356935,-6.5479593,7.6013994,0.047647454,0.054366965,0.052076224,4.3500004,28.85625,-21.73125,watch_1
15274285011287,-0.014356935,-6.5479593,7.6013994,0.07574723,0.053145237,0.056963142,4.875,29.812502,-23.23125,watch_1
15274266514517,-0.014356935,-6.5479593,7.6013994,0.07574723,0.053145237,0.056963142,4.875,29.812502,-23.23125,watch_1
15274295011235,-0.014356935,-6.5479593,7.6013994,0.07574723,0.053145237,0.056963142,5.11875,28.95,-20.925001,watch_1
15274290551235,-0.14356937,-6.509674,7.711469,0.07574723,0.053145237,0.056963142,5.11875,28.95,-20.925001,watch_1
15274305011183,-0.14356937,-6.509674,7.711469,0.05497783,0.045814857,0.06429352,3.54375,27.225,-22.837502,watch_1
15274285588475,-0.14356937,-6.509674,7.711469,0.05497783,0.045814857,0.06429352,3.54375,27.225,-22.837502,watch_1
15274315011131,-0.14356937,-6.509674,7.711469,0.05497783,0.045814857,0.06429352,5.3250003,28.7625,-24.225,watch_1
15274309624256,-0.22013968,-6.48096,7.7258263,0.05497783,0.045814857,0.06429352,5.3250003,28.7625,-24.225,watch_1
15274304661496,-0.22013968,-6.48096,7.7258263,-0.047647454,0.034819294,0.06551525,5.3250003,28.7625,-24.225,watch_1
15274325011079,-0.22013968,-6.48096,7.7258263,-0.047647454,0.034819294,0.06551525,3.80625,29.6625,-22.743752,watch_1
15274335011027,-0.22013968,-6.48096,7.7258263,-0.047647454,0.034819294,0.06551525,5.15625,28.44375,-23.775002,watch_1
15274323735506,-0.17228323,-6.452246,7.740183,-0.18692462,-0.0006108648,0.075289086,5.15625,28.44375,-23.775002,watch_1
15274328698267,-0.17228323,-6.452246,7.740183,-0.18692462,-0.0006108648,0.075289086,5.15625,28.44375,-23.775002,watch_1
15274345010975,-0.17228323,-6.452246,7.740183,-0.18692462,-0.0006108648,0.075289086,5.25,30.243752,-21.768751,watch_1
15274355010923,-0.17228323,-6.452246,7.740183,-0.18692462,-0.0006108648,0.075289086,5.3812504,28.706251,-21.31875,watch_1
15274347771235,-0.15792629,-6.5001025,7.9794655,-0.33231044,-0.03604102,0.10949751,5.3812504,28.706251,-21.31875,watch_1
15274342808475,-0.15792629,-6.5001025,7.9794655,-0.33231044,-0.03604102,0.10949751,5.3812504,28.706251,-21.31875,watch_1
15274365010871,-0.15792629,-6.5001025,7.9794655,-0.33231044,-0.03604102,0.10949751,4.7250004,28.35,-21.7875,watch_1
15274375010819,-0.15792629,-6.5001025,7.9794655,-0.33231044,-0.03604102,0.10949751,4.7250004,29.625002,-22.050001,watch_1
15274361851496,-0.31106696,-6.361319,8.008179,-0.5729912,-0.06291907,0.14004076,4.7250004,29.625002,-22.050001,watch_1
15274366814256,-0.31106696,-6.361319,8.008179,-0.5729912,-0.06291907,0.14004076,4.7250004,29.625002,-22.050001,watch_1
15274385010767,-0.31106696,-6.361319,8.008179,-0.5729912,-0.06291907,0.14004076,3.6000001,29.062502,-22.125,watch_1
15274395010715,-0.31106696,-6.361319,8.008179,-0.5729912,-0.06291907,0.14004076,4.6875,30.768751,-22.7625,watch_1
15274385888267,-0.32063824,-6.4905314,7.6396847,-0.88697565,-0.12034036,0.16936226,4.6875,30.768751,-22.7625,watch_1
15274380925506,-0.32063824,-6.4905314,7.6396847,-0.88697565,-0.12034036,0.16936226,4.6875,30.768751,-22.7625,watch_1
15274405010662,-0.32063824,-6.4905314,7.6396847,-0.88697565,-0.12034036,0.16936226,4.6312504,28.593752,-20.362501,watch_1
15274404961235,-0.21535404,-6.882954,7.199405,-0.88697565,-0.12034036,0.16936226,4.6312504,28.593752,-20.362501,watch_1
15274399998475,-0.21535404,-6.882954,7.199405,-1.1569779,-0.1802051,0.17424917,4.6312504,28.593752,-20.362501,watch_1
15274415010610,-0.21535404,-6.882954,7.199405,-1.1569779,-0.1802051,0.17424917,5.53125,29.98125,-20.400002,watch_1
15274425010558,-0.21535404,-6.882954,7.199405,-1.1569779,-0.1802051,0.17424917,3.91875,30.16875,-19.725,watch_1
15274419071496,-0.21535404,-6.882954,7.199405,-1.3060288,-0.23273948,0.1876882,3.91875,30.16875,-19.725,watch_1
15274424034256,-0.13878371,-6.9212394,7.0414786,-1.3060288,-0.23273948,0.1876882,5.3625,30.91875,-19.5,watch_1
15274435010506,-0.13878371,-6.9212394,7.0414786,-1.3060288,-0.23273948,0.1876882,5.3625,30.91875,-19.5,watch_1
15274445010454,-0.13878371,-6.9212394,7.0414786,-1.3060288,-0.23273948,0.1876882,5.775,30.375002,-18.225,watch_1
15274443108267,-0.2440679,-7.179664,6.5294147,-1.3610067,-0.2706131,0.16569707,5.775,30.375002,-18.225,watch_1
15274438145506,-0.2440679,-7.179664,6.5294147,-1.3610067,-0.2706131,0.16569707,5.775,30.375002,-18.225,watch_1
15274455010402,-0.2440679,-7.179664,6.5294147,-1.3610067,-0.2706131,0.16569707,4.5375004,30.093752,-18.7875,watch_1
15274465010350,-0.2440679,-7.179664,6.5294147,-1.3610067,-0.2706131,0.16569707,3.6000001,30.937502,-17.6625,watch_1
15274462181235,-0.09092726,-7.4045897,5.7397833,-1.3817761,-0.3084867,0.11071924,3.075,31.425001,-17.19375,watch_1
15274457218475,-0.09092726,-7.4045897,5.7397833,-1.3817761,-0.3084867,0.11071924,3.075,31.425001,-17.19375,watch_1
15274485010246,-0.09092726,-7.4045897,5.7397833,-1.3817761,-0.3084867,0.11071924,3.075,31.425001,-17.19375,watch_1
15274475010298,-0.09092726,-7.4045897,5.7397833,-1.3817761,-0.3084867,0.11071924,3.075,31.425001,-17.19375,watch_1
15274481255246,0.16749759,-7.9740815,5.08415,-1.3561198,-0.28405213,0.066736974,4.96875,31.893751,-14.400001,watch_1
15274476292485,0.16749759,-7.9740815,5.08415,-1.3561198,-0.28405213,0.066736974,4.96875,31.893751,-14.400001,watch_1
15274505010142,0.16749759,-7.9740815,5.08415,-1.3561198,-0.28405213,0.066736974,4.875,31.181252,-14.925,watch_1
15274500328267,0.3684947,-8.184649,5.136792,-1.3561198,-0.28405213,0.066736974,4.875,31.181252,-14.925,watch_1
15274495010194,0.16749759,-7.9740815,5.08415,-1.3561198,-0.28405213,0.066736974,4.96875,31.893751,-14.400001,watch_1
15274515010090,0.3684947,-8.184649,5.136792,-1.2718204,-0.24862197,0.03497201,5.71875,31.650002,-11.962501,watch_1
15274495365506,0.3684947,-8.184649,5.136792,-1.2718204,-0.24862197,0.03497201,4.875,31.181252,-14.925,watch_1
15274519402277,0.3062813,-8.505288,5.5627146,-1.147204,-0.22663084,0.028863361,5.71875,31.650002,-11.962501,watch_1
15274535009985,0.3062813,-8.505288,5.5627146,-1.147204,-0.22663084,0.028863361,6.0937505,29.250002,-10.2375,watch_1
15274514439517,0.3062813,-8.505288,5.5627146,-1.147204,-0.22663084,0.028863361,6.0937505,29.250002,-10.2375,watch_1
15274525010037,0.3062813,-8.505288,5.5627146,-1.147204,-0.22663084,0.028863361,6.0937505,29.250002,-10.2375,watch_1
15274545009933,0.20578274,-8.222935,6.1034923,-1.147204,-0.22663084,0.028863361,6.0750003,31.968752,-11.53125,watch_1
15274538475246,0.20578274,-8.222935,6.1034923,-1.1117738,-0.24740024,-0.018784093,6.0750003,31.968752,-11.53125,watch_1
15274555009881,0.20578274,-8.222935,6.1034923,-1.1117738,-0.24740024,-0.018784093,4.0687504,32.68125,-10.8,watch_1
15274533512485,0.20578274,-8.222935,6.1034923,-1.1117738,-0.24740024,-0.018784093,4.0687504,32.68125,-10.8,watch_1
15274565009829,0.20578274,-8.222935,6.1034923,-1.0787872,-0.31093016,-0.017562363,5.45625,29.98125,-8.64375,watch_1
15274552555506,0.11964113,-8.313862,6.0747786,-1.0787872,-0.31093016,-0.017562363,5.45625,29.98125,-8.64375,watch_1
15274557518267,0.11964113,-8.313862,6.0747786,-1.0787872,-0.31093016,-0.017562363,5.45625,29.98125,-8.64375,watch_1
15274575009777,0.11964113,-8.313862,6.0747786,-1.0787872,-0.31093016,-0.017562363,4.6312504,30.73125,-8.94375,watch_1
15274585009725,0.11964113,-8.313862,6.0747786,-1.0787872,-0.31093016,-0.017562363,6.6937504,30.2625,-7.9500003,watch_1
15274576592277,0.28713873,-8.538788,5.5627146,-1.0604613,-0.3830122,-0.039553493,6.6937504,30.2625,-7.9500003,watch_1
15274571629517,0.28713873,-8.538788,5.5627146,-1.0604613,-0.3830122,-0.039553493,6.6937504,30.2625,-7.9500003,watch_1
15274595009673,0.28713873,-8.538788,5.5627146,-1.0604613,-0.3830122,-0.039553493,4.05,30.806252,-9.168751,watch_1
15274605009621,0.28713873,-8.538788,5.5627146,-1.0604613,-0.3830122,-0.039553493,5.8125,31.875002,-9.225,watch_1
15274590702485,0.28713873,-8.538788,5.5627146,-0.92362756,-0.4196641,-0.05054906,5.8125,31.875002,-9.225,watch_1
15274595665246,0.46899325,-8.601001,5.0506506,-0.92362756,-0.4196641,-0.05054906,5.8125,31.875002,-9.225,watch_1
15274615009569,0.46899325,-8.601001,5.0506506,-0.92362756,-0.4196641,-0.05054906,4.14375,31.500002,-8.212501,watch_1
15274614739256,0.4833502,-8.500503,4.4668016,-0.92362756,-0.4196641,-0.05054906,4.14375,31.500002,-8.212501,watch_1
15274609776496,0.4833502,-8.500503,4.4668016,-0.7696896,-0.411112,-0.09086613,5.1000004,33.61875,-9.0375,watch_1
15274625009517,0.4833502,-8.500503,4.4668016,-0.7696896,-0.411112,-0.09086613,5.1000004,33.61875,-9.0375,watch_1
15274635009465,0.4833502,-8.500503,4.4668016,-0.7696896,-0.411112,-0.09086613,5.1937504,31.63125,-8.400001,watch_1
15274628849517,0.4833502,-8.500503,4.4668016,-0.61452997,-0.42943794,-0.1226311,4.275,34.068752,-8.587501,watch_1
15274645009412,0.3493521,-8.754142,5.041079,-0.61452997,-0.42943794,-0.1226311,4.275,34.068752,-8.587501,watch_1
15274633812277,0.3493521,-8.754142,5.041079,-0.61452997,-0.42943794,-0.1226311,4.275,34.068752,-8.587501,watch_1
15274655009360,0.3493521,-8.754142,5.041079,-0.61452997,-0.42943794,-0.1226311,4.275,32.79375,-8.325001,watch_1
15274652886235,0.29192436,-8.945567,5.5914283,-0.66706437,-0.47097674,-0.16050471,4.8562503,33.84375,-7.3500004,watch_1
15274665009308,0.29192436,-8.945567,5.5914283,-0.66706437,-0.47097674,-0.16050471,4.8562503,33.84375,-7.3500004,watch_1
15274647923475,0.29192436,-8.945567,5.5914283,-0.66706437,-0.47097674,-0.16050471,4.8562503,33.84375,-7.3500004,watch_1
15274675009256,0.29192436,-8.945567,5.5914283,-0.66706437,-0.47097674,-0.16050471,4.14375,34.5,-9.225,watch_1
15274671959256,0.5407779,-9.538987,5.155935,-0.77946347,-0.5076286,-0.23014331,4.14375,34.5,-9.225,watch_1
15274666996496,0.5407779,-9.538987,5.155935,-0.77946347,-0.5076286,-0.23014331,4.14375,34.5,-9.225,watch_1
15274685009204,0.5407779,-9.538987,5.155935,-0.77946347,-0.5076286,-0.23014331,4.18125,34.78125,-9.262501,watch_1
15274695009152,0.5407779,-9.538987,5.155935,-0.77946347,-0.5076286,-0.23014331,2.3625002,33.131252,-9.450001,watch_1
15274691033267,0.65084773,-9.826126,4.730012,-0.77946347,-0.5076286,-0.23014331,2.3625002,33.131252,-9.450001,watch_1
15274686070506,0.65084773,-9.826126,4.730012,-0.8503238,-0.5711586,-0.28145593,3.6000001,34.518753,-7.4062505,watch_1
15274705009100,0.65084773,-9.826126,4.730012,-0.8503238,-0.5711586,-0.28145593,3.6000001,34.518753,-7.4062505,watch_1
15274715009048,0.65084773,-9.826126,4.730012,-0.8503238,-0.5711586,-0.28145593,4.40625,35.362503,-8.418751,watch_1
15274710106235,0.7752745,-9.716056,4.0360937,-0.7171553,-0.61147565,-0.33032513,3.15,33.506252,-8.6625,watch_1
15274725008996,0.7752745,-9.716056,4.0360937,-0.7171553,-0.61147565,-0.33032513,3.15,33.506252,-8.6625,watch_1
15274705143475,0.7752745,-9.716056,4.0360937,-0.7171553,-0.61147565,-0.33032513,3.15,33.506252,-8.6625,watch_1
15274735008944,0.7752745,-9.716056,4.0360937,-0.7171553,-0.61147565,-0.33032513,1.2,33.075,-6.95625,watch_1
15274729149256,0.79441714,-9.582058,3.9308095,-0.7171553,-0.61147565,-0.33032513,1.2,33.075,-6.95625,watch_1
15274724186496,0.79441714,-9.582058,3.9308095,-0.41416633,-0.6298016,-0.3755291,1.2,33.075,-6.95625,watch_1
15274745008892,0.79441714,-9.582058,3.9308095,-0.41416633,-0.6298016,-0.3755291,2.4562502,34.912502,-6.7125,watch_1
15274755008840,0.79441714,-9.582058,3.9308095,-0.41416633,-0.6298016,-0.3755291,2.2125,34.050003,-6.7875004,watch_1
15274743260506,0.8566305,-8.849854,4.5098724,-0.19058982,-0.66401,-0.42073312,2.2125,34.050003,-6.7875004,watch_1
15274748223267,0.8566305,-8.849854,4.5098724,-0.19058982,-0.66401,-0.42073312,2.2125,34.050003,-6.7875004,watch_1
15274765008787,0.8566305,-8.849854,4.5098724,-0.19058982,-0.66401,-0.42073312,0.16875,34.48125,-6.7875004,watch_1
15274775008735,0.8566305,-8.849854,4.5098724,-0.19058982,-0.66401,-0.42073312,2.53125,34.050003,-5.45625,watch_1
15274767296235,1.0193424,-8.452646,4.471587,-0.19058982,-0.66401,-0.42073312,2.53125,34.050003,-5.45625,watch_1
15274762333475,1.0193424,-8.452646,4.471587,-0.30421066,-0.6884446,-0.45005462,2.53125,34.050003,-5.45625,watch_1
15274785008683,1.0193424,-8.452646,4.471587,-0.30421066,-0.6884446,-0.45005462,-0.056250002,30.562502,-3.2250001,watch_1
15274795008631,1.0193424,-8.452646,4.471587,-0.30421066,-0.6884446,-0.45005462,1.5187501,32.756252,-3.99375,watch_1
15274786370246,1.3016955,-8.318648,3.7106698,-0.6902772,-0.6884446,-0.46227193,1.5187501,32.756252,-3.99375,watch_1
15274781407485,1.3016955,-8.318648,3.7106698,-0.6902772,-0.6884446,-0.46227193,1.5187501,32.756252,-3.99375,watch_1
15274805008579,1.3016955,-8.318648,3.7106698,-0.6902772,-0.6884446,-0.46227193,1.2375001,34.10625,-2.98125,watch_1
15274815008527,1.3016955,-8.318648,3.7106698,-0.6902772,-0.6884446,-0.46227193,1.9312501,32.0625,-1.8375001,watch_1
15274805443267,1.5601203,-8.668,3.1220353,-0.6902772,-0.6884446,-0.46227193,1.9312501,32.0625,-1.8375001,watch_1
15274800480506,1.5601203,-8.668,3.1220353,-0.94073176,-0.67622733,-0.41828966,1.9312501,32.0625,-1.8375001,watch_1
15274825008475,1.5601203,-8.668,3.1220353,-0.94073176,-0.67622733,-0.41828966,0.90000004,32.2125,-1.9687501,watch_1
15274824517277,1.6271194,-9.127422,2.89711,-0.9150754,-0.64812756,-0.3620901,0.90000004,32.2125,-1.9687501,watch_1
15274819554517,1.6271194,-9.127422,2.89711,-0.9150754,-0.64812756,-0.3620901,0.90000004,32.2125,-1.9687501,watch_1
15274835008423,1.6271194,-9.127422,2.89711,-0.9150754,-0.64812756,-0.3620901,-0.75,35.30625,-4.65,watch_1
15274845008371,1.6271194,-9.127422,2.89711,-0.9150754,-0.64812756,-0.3620901,-0.0,33.506252,-1.7625,watch_1
15274838627485,1.6271194,-9.127422,2.89711,-0.6902772,-0.6017018,-0.32299474,-0.0,33.506252,-1.7625,watch_1
15274855008319,1.5553347,-9.385847,2.7296124,-0.6902772,-0.6017018,-0.32299474,-1.1625,34.256252,-4.14375,watch_1
15274843590246,1.5553347,-9.385847,2.7296124,-0.6902772,-0.6017018,-0.32299474,-1.1625,34.256252,-4.14375,watch_1
15274865008267,1.5553347,-9.385847,2.7296124,-0.6902772,-0.6017018,-0.32299474,-0.5625,33.84375,-1.725,watch_1
15274862664256,1.4500505,-8.687142,2.5956144,-0.6902772,-0.6017018,-0.32299474,-0.5625,33.84375,-1.725,watch_1
15274857701496,1.4500505,-8.687142,2.5956144,-0.4630355,-0.51251554,-0.29856017,-0.5625,33.84375,-1.725,watch_1
15274875008215,1.4500505,-8.687142,2.5956144,-0.4630355,-0.51251554,-0.29856017,-0.61875004,36.28125,-3.4125001,watch_1
15274885008162,1.4500505,-8.687142,2.5956144,-0.4630355,-0.51251554,-0.29856017,-3.0375001,33.2625,-2.6625001,watch_1
15274881737277,1.4213367,-8.141579,2.7296124,-0.4630355,-0.51251554,-0.29856017,-3.0375001,33.2625,-2.6625001,watch_1
15274895008110,1.4213367,-8.141579,2.7296124,-0.32253662,-0.46731156,-0.23869541,-0.69375,35.550003,-2.9250002,watch_1
15274876774517,1.4213367,-8.141579,2.7296124,-0.32253662,-0.46731156,-0.23869541,-0.69375,35.550003,-2.9250002,watch_1
15274905008058,1.4213367,-8.141579,2.7296124,-0.32253662,-0.46731156,-0.23869541,-1.63125,33.73125,-2.2687502,watch_1
15274900811235,1.5601203,-8.323434,2.7583263,-0.3933969,-0.4331031,-0.16661337,-1.63125,33.73125,-2.2687502,watch_1
15274895848475,1.5601203,-8.323434,2.7583263,-0.3933969,-0.4331031,-0.16661337,-1.63125,33.73125,-2.2687502,watch_1
15274915008006,1.5601203,-8.323434,2.7583263,-0.3933969,-0.4331031,-0.16661337,-0.73125005,35.268753,-2.8875,watch_1
15274925007954,1.5601203,-8.323434,2.7583263,-0.3933969,-0.4331031,-0.16661337,-0.01875,34.631252,-1.725,watch_1
15274919854256,1.7754744,-8.419147,2.7870402,-0.3933969,-0.4331031,-0.16661337,-0.01875,34.631252,-1.725,watch_1
15274914891496,1.7754744,-8.419147,2.7870402,-0.5082395,-0.37079492,-0.09086613,-0.01875,34.631252,-1.725,watch_1
15274935007902,1.7754744,-8.419147,2.7870402,-0.5082395,-0.37079492,-0.09086613,-0.93750006,35.756252,-0.93750006,watch_1
15274945007850,1.7754744,-8.419147,2.7870402,-0.5082395,-0.37079492,-0.09086613,-0.45000002,34.875,-2.23125,watch_1
15274933964517,1.7754744,-8.419147,2.7870402,-0.5253437,-0.31703883,0.011759147,-0.45000002,34.875,-2.23125,watch_1
15274938927277,1.7754744,-8.505288,2.5669005,-0.5253437,-0.31703883,0.011759147,0.50625,35.568752,-2.34375,watch_1
15274955007798,1.7754744,-8.505288,2.5669005,-0.5253437,-0.31703883,0.011759147,0.50625,35.568752,-2.34375,watch_1
15274965007746,1.7754744,-8.505288,2.5669005,-0.5253437,-0.31703883,0.011759147,-0.15,35.98125,-0.13125001,watch_1
15274958001235,1.7994026,-8.543573,2.2510478,-0.5253437,-0.31703883,0.011759147,-0.15,35.98125,-0.13125001,watch_1
15274953038475,1.7994026,-8.543573,2.2510478,-0.44959646,-0.27550003,0.081397735,-0.15,35.98125,-0.13125001,watch_1
15274975007694,1.7994026,-8.543573,2.2510478,-0.44959646,-0.27550003,0.081397735,-0.13125001,35.98125,0.3,watch_1
15274985007642,1.7994026,-8.543573,2.2510478,-0.44959646,-0.27550003,0.081397735,-1.725,34.275,-2.4750001,watch_1
15274972111496,1.7994026,-8.830712,2.1984057,-0.31398448,-0.2376264,0.15592323,-1.725,34.275,-2.4750001,watch_1
15274977074256,1.7994026,-8.830712,2.1984057,-0.31398448,-0.2376264,0.15592323,-1.725,34.275,-2.4750001,watch_1
15274995007590,1.7994026,-8.830712,2.1984057,-0.31398448,-0.2376264,0.15592323,-1.9687501,34.5,-0.76875,watch_1
15275005007537,1.7994026,-8.830712,2.1984057,-0.31398448,-0.2376264,0.15592323,-0.69375,33.975002,-1.8937501,watch_1
15274996148267,1.8041883,-9.060423,2.3419752,-0.086742796,-0.18875721,0.21578798,-0.69375,33.975002,-1.8937501,watch_1
15274991185506,1.8041883,-9.060423,2.3419752,-0.086742796,-0.18875721,0.21578798,-0.69375,33.975002,-1.8937501,watch_1
15275015007485,1.8041883,-9.060423,2.3419752,-0.086742796,-0.18875721,0.21578798,-0.91875005,34.65,-1.9875001,watch_1
15275025007433,1.698904,-9.1465645,2.6578279,-0.086742796,-0.18875721,0.21578798,-0.375,35.25,0.20625001,watch_1
15275010258475,1.698904,-9.1465645,2.6578279,0.12950334,-0.17409647,0.2536616,-0.375,35.25,0.20625001,watch_1
15275015221235,1.698904,-9.1465645,2.6578279,0.12950334,-0.17409647,0.2536616,-0.375,35.25,0.20625001,watch_1
15275035007381,1.698904,-9.1465645,2.6578279,0.12950334,-0.17409647,0.2536616,-0.375,35.25,0.20625001,watch_1
15275045007329,1.698904,-9.1465645,2.6578279,0.13805544,-0.14966187,0.25488332,-0.69375,33.65625,0.0375,watch_1
15275029332485,1.698904,-9.1465645,2.6578279,0.13805544,-0.14966187,0.25488332,-0.69375,33.65625,0.0375,watch_1
15275034295246,1.7659031,-9.15135,2.653042,0.13805544,-0.14966187,0.25488332,-0.69375,33.65625,0.0375,watch_1
15275055007277,1.7659031,-9.15135,2.653042,0.13805544,-0.14966187,0.25488332,-0.69375,33.65625,0.0375,watch_1
15275053368267,1.7754744,-9.462418,2.4281168,0.13805544,-0.14966187,0.25488332,-0.69375,33.65625,0.0375,watch_1
15275048405506,1.7754744,-9.462418,2.4281168,-0.02565632,-0.11300998,0.23655738,-0.69375,33.65625,0.0375,watch_1
15275065007225,1.7754744,-9.462418,2.4281168,-0.02565632,-0.11300998,0.23655738,0.112500004,34.5,-1.25625,watch_1
15275075007173,1.7754744,-9.462418,2.4281168,-0.02565632,-0.11300998,0.23655738,-0.84375006,33.80625,-1.1625,watch_1
15275072441235,1.8855443,-9.984053,2.265405,-0.02565632,-0.11300998,0.23655738,-0.84375006,33.80625,-1.1625,watch_1
15275067478475,1.8855443,-9.984053,2.265405,-0.19547673,-0.0971275,0.2035707,-0.84375006,33.80625,-1.1625,watch_1
15275085007121,1.8855443,-9.984053,2.265405,-0.19547673,-0.0971275,0.2035707,0.056250002,35.34375,-1.8000001,watch_1
15275095007069,1.8855443,-9.984053,2.265405,-0.19547673,-0.0971275,0.2035707,0.056250002,35.34375,-1.8000001,watch_1
15275091484256,1.9238294,-10.079765,2.3132613,-0.21135922,-0.051923506,0.16569707,0.056250002,35.34375,-1.8000001,watch_1
15275086521496,1.9238294,-10.079765,2.3132613,-0.21135922,-0.051923506,0.16569707,0.056250002,35.34375,-1.8000001,watch_1
15275105007017,1.9238294,-10.079765,2.3132613,-0.21135922,-0.051923506,0.16569707,0.91875005,33.45,-0.20625001,watch_1
15275115006965,1.9238294,-10.079765,2.3132613,-0.21135922,-0.051923506,0.16569707,-1.10625,34.18125,-0.50625,watch_1
15275110558267,2.0338993,-9.605987,2.3515465,-0.21135922,-0.051923506,0.16569707,-1.10625,34.18125,-0.50625,watch_1
15275105595506,2.0338993,-9.605987,2.3515465,-0.16982041,-0.021380268,0.14126249,-1.10625,34.18125,-0.50625,watch_1
15275125006912,2.0338993,-9.605987,2.3515465,-0.16982041,-0.021380268,0.14126249,1.3687501,34.78125,-0.28125,watch_1
15275135006860,2.0338993,-9.605987,2.3515465,-0.16982041,-0.021380268,0.14126249,-0.01875,34.29375,0.63750005,watch_1
15275129631235,2.053042,-9.55813,2.2127628,-0.16982041,-0.021380268,0.14126249,-0.01875,34.29375,0.63750005,watch_1
15275124668475,2.053042,-9.55813,2.2127628,-0.21746786,0.0067195124,0.12049308,-0.01875,34.29375,0.63750005,watch_1
15275145006808,2.053042,-9.55813,2.2127628,-0.21746786,0.0067195124,0.12049308,-0.63750005,33.9,2.04375,watch_1
15275155006756,2.053042,-9.55813,2.2127628,-0.21746786,0.0067195124,0.12049308,0.0375,34.875,0.28125,watch_1
15275148705246,2.0721843,-9.419347,2.1888344,-0.21746786,0.0067195124,0.12049308,0.0375,34.875,0.28125,watch_1
15275143742485,2.0721843,-9.419347,2.1888344,-0.21624613,0.028710645,0.100945406,0.0375,34.875,0.28125,watch_1
15275165006704,2.0721843,-9.419347,2.1888344,-0.21624613,0.028710645,0.100945406,-0.3375,35.53125,0.46875003,watch_1
15275175006652,2.0721843,-9.419347,2.1888344,-0.21624613,0.028710645,0.100945406,0.28125,35.775,-0.35625002,watch_1
15275167778267,1.9764715,-9.438489,2.207977,-0.05986475,0.06902772,0.11438443,0.28125,35.775,-0.35625002,watch_1
15275162815506,1.9764715,-9.438489,2.207977,-0.05986475,0.06902772,0.11438443,0.28125,35.775,-0.35625002,watch_1
15275185006600,1.9764715,-9.438489,2.207977,-0.05986475,0.06902772,0.11438443,-0.24375,34.96875,0.675,watch_1
15275195006548,1.9764715,-9.438489,2.207977,-0.05986475,0.06902772,0.11438443,0.3375,34.912502,0.31875002,watch_1
15275181889517,1.9764715,-9.438489,2.207977,0.06352994,0.082466744,0.107054055,0.3375,34.912502,0.31875002,watch_1
15275186852277,1.9094725,-9.342776,2.3132613,0.06352994,0.082466744,0.107054055,0.3375,34.912502,0.31875002,watch_1
15275205006496,1.9094725,-9.342776,2.3132613,0.06352994,0.082466744,0.107054055,0.0375,34.875,-0.15,watch_1
15275215006444,1.9094725,-9.342776,2.3132613,0.06352994,0.082466744,0.107054055,-0.675,35.2125,-0.26250002,watch_1
15275200962485,1.9286151,-9.486345,2.6961129,0.07574723,0.08124501,0.10216714,-0.675,35.2125,-0.26250002,watch_1
15275205925246,1.9286151,-9.486345,2.6961129,0.06352994,0.082466744,0.107054055,-0.675,35.2125,-0.26250002,watch_1
15275225006392,1.9286151,-9.486345,2.6961129,0.07574723,0.08124501,0.10216714,1.63125,35.643753,0.54375005,watch_1
15275224999256,2.0338993,-9.486345,2.868396,-0.02443459,0.09590577,0.054519683,1.63125,35.643753,0.54375005,watch_1
15275220036496,2.0338993,-9.486345,2.868396,-0.02443459,0.09590577,0.054519683,1.63125,35.643753,0.54375005,watch_1
15275235006340,2.0338993,-9.486345,2.868396,-0.02443459,0.09590577,0.054519683,0.6,34.6875,-0.35625002,watch_1
15275245006287,2.0338993,-9.486345,2.868396,-0.02443459,0.09590577,0.054519683,-0.61875004,35.79375,-0.6,watch_1
15275244072277,2.0673988,-9.577272,2.8731818,-0.02443459,0.09590577,0.054519683,-0.61875004,35.79375,-0.6,watch_1
15275239109517,2.0673988,-9.577272,2.8731818,-0.14660755,0.1178969,0.03497201,-0.61875004,35.79375,-0.6,watch_1
15275255006235,2.0673988,-9.577272,2.8731818,-0.14660755,0.1178969,0.03497201,2.4,34.93125,-1.1812501,watch_1
15275265006183,2.0673988,-9.577272,2.8731818,-0.20402883,0.13133593,0.017867794,2.4,34.93125,-1.1812501,watch_1
15275258152485,2.0673988,-9.577272,2.8731818,-0.20402883,0.13133593,0.017867794,2.4,34.93125,-1.1812501,watch_1
15275263115246,2.0578275,-9.400204,2.6721847,-0.20402883,0.13133593,0.017867794,2.4,34.93125,-1.1812501,watch_1
15275275006131,2.0578275,-9.400204,2.6721847,-0.20402883,0.13133593,0.017867794,0.375,35.34375,-0.15,watch_1
15275285006079,2.0578275,-9.400204,2.6721847,-0.20402883,0.13133593,0.017867794,-0.1875,35.4,0.93750006,watch_1
15275282189256,1.8711873,-9.404989,2.8205397,-0.11362085,0.0971275,0.03008509,-0.1875,35.4,0.93750006,watch_1
15275277226496,1.8711873,-9.404989,2.8205397,-0.11362085,0.0971275,0.03008509,-0.1875,35.4,0.93750006,watch_1
15275295006027,1.8711873,-9.404989,2.8205397,-0.11362085,0.0971275,0.03008509,0.88125,35.831253,-0.0,watch_1
15275305005975,1.8711873,-9.404989,2.8205397,-0.11362085,0.0971275,0.03008509,-0.52500004,33.80625,0.91875005,watch_1
15275301262277,1.7084754,-9.620343,3.112464,0.040317077,0.059253883,0.03497201,-0.52500004,33.80625,0.91875005,watch_1
15275296299517,1.7084754,-9.620343,3.112464,0.040317077,0.059253883,0.03497201,-0.52500004,33.80625,0.91875005,watch_1
15275315005923,1.7084754,-9.620343,3.112464,0.040317077,0.059253883,0.03497201,0.0375,35.362503,-2.23125,watch_1
15275325005871,1.7084754,-9.620343,3.112464,0.040317077,0.059253883,0.03497201,1.63125,34.518753,0.075,watch_1
15275320336235,1.5936198,-9.71127,2.978466,0.2773326,0.031154104,0.031306818,1.63125,34.518753,0.075,watch_1
15275315373475,1.5936198,-9.71127,2.978466,0.2773326,0.031154104,0.031306818,1.63125,34.518753,0.075,watch_1
15275335005819,1.5936198,-9.71127,2.978466,0.2773326,0.031154104,0.031306818,0.8625,35.550003,0.46875003,watch_1
15275345005767,1.5936198,-9.71127,2.978466,0.2773326,0.031154104,0.031306818,-0.65625,34.40625,-1.9312501,watch_1
15275339409256,1.4691931,-9.247063,3.016751,0.2773326,0.031154104,0.031306818,-0.65625,34.40625,-1.9312501,watch_1
15275334446496,1.4691931,-9.247063,3.016751,0.5986475,0.029932374,0.067958705,-0.65625,34.40625,-1.9312501,watch_1
15275355005715,1.4691931,-9.247063,3.016751,0.5986475,0.029932374,0.067958705,-0.675,33.9375,-0.28125,watch_1
15275365005662,1.4691931,-9.247063,3.016751,0.5986475,0.029932374,0.067958705,-0.3375,34.443752,-1.3125,watch_1
15275358483267,1.5170496,-9.309277,3.0550363,0.81122845,0.028710645,0.099723674,-0.3375,34.443752,-1.3125,watch_1
15275353520506,1.5170496,-9.309277,3.0550363,0.81122845,0.028710645,0.099723674,-0.3375,34.443752,-1.3125,watch_1
15275375005610,1.5170496,-9.309277,3.0550363,0.81122845,0.028710645,0.099723674,1.06875,35.04375,-1.6500001,watch_1
15275385005558,1.5170496,-9.309277,3.0550363,0.81122845,0.028710645,0.099723674,1.3125,34.5,-0.975,watch_1
15275377556235,1.5553347,-9.251849,3.0215368,0.79534596,0.07513637,0.08261946,1.3125,34.5,-0.975,watch_1
15275372593475,1.5553347,-9.251849,3.0215368,0.79534596,0.07513637,0.08261946,1.3125,34.5,-0.975,watch_1
15275395005506,1.5553347,-9.251849,3.0215368,0.79534596,0.07513637,0.08261946,2.4,34.93125,-1.48125,watch_1
15275405005454,1.5026926,-9.060423,2.9736803,0.79534596,0.07513637,0.08261946,0.63750005,34.96875,-0.675,watch_1
15275396630246,1.5026926,-9.060423,2.9736803,0.79534596,0.07513637,0.08261946,0.63750005,34.96875,-0.675,watch_1
15275391667485,1.5026926,-9.060423,2.9736803,0.718377,0.14966187,0.0923933,0.63750005,34.96875,-0.675,watch_1
15275415005402,1.5026926,-9.060423,2.9736803,0.718377,0.14966187,0.0923933,-0.93750006,35.79375,-1.95,watch_1
15275425005350,1.5026926,-9.060423,2.9736803,0.718377,0.14966187,0.0923933,0.93750006,34.068752,-3.0187502,watch_1
15275410740506,1.3160524,-8.864211,3.0933216,0.66217744,0.19120067,0.12782346,0.93750006,34.068752,-3.0187502,watch_1
15275415703267,1.3160524,-8.864211,3.0933216,0.66217744,0.19120067,0.12782346,0.93750006,34.068752,-3.0187502,watch_1
15275435005298,1.3160524,-8.864211,3.0933216,0.66217744,0.19120067,0.12782346,1.6875001,34.0125,-2.0625,watch_1
15275434777277,1.3304094,-8.749356,3.4857445,0.62552553,0.18142684,0.16569707,1.6875001,34.0125,-2.0625,watch_1
15275429814517,1.3304094,-8.749356,3.4857445,0.62552553,0.18142684,0.16569707,1.6875001,34.0125,-2.0625,watch_1
15275445005246,1.3304094,-8.749356,3.4857445,0.62552553,0.18142684,0.16569707,0.80625004,36.2625,-7.0312505,watch_1
15275455005194,1.3304094,-8.749356,3.4857445,0.62552553,0.18142684,0.16569707,0.3375,34.143753,-3.525,watch_1
15275453820246,1.3878372,-8.6345005,4.1605206,0.62552553,0.18142684,0.16569707,0.3375,34.143753,-3.525,watch_1
15275448857485,1.3878372,-8.6345005,4.1605206,0.4874701,0.17043127,0.18402301,2.5687501,34.331253,-4.74375,watch_1
15275465005142,1.3878372,-8.6345005,4.1605206,0.4874701,0.17043127,0.18402301,2.5687501,34.331253,-4.74375,watch_1
15275475005090,1.3878372,-8.6345005,4.1605206,0.4874701,0.17043127,0.18402301,2.5687501,34.331253,-4.74375,watch_1
15275472893267,1.4213367,-8.318648,4.2705903,0.19303326,0.15699224,0.1791361,2.5687501,34.331253,-4.74375,watch_1
15275467930506,1.4213367,-8.318648,4.2705903,0.19303326,0.15699224,0.1791361,2.5687501,34.331253,-4.74375,watch_1
15275485005037,1.4213367,-8.318648,4.2705903,0.19303326,0.15699224,0.1791361,2.0625,35.268753,-5.3250003,watch_1
15275495004985,1.4213367,-8.318648,4.2705903,0.19303326,0.15699224,0.1791361,1.48125,34.987503,-2.7562501,watch_1
15275491967277,1.4787644,-8.2660055,3.6053855,0.19303326,0.15699224,0.1791361,1.48125,34.987503,-2.7562501,watch_1
15275487004517,1.4787644,-8.2660055,3.6053855,-0.11728604,0.16432263,0.20723587,0.8625,36.206253,-3.9562502,watch_1
15275505004933,1.4787644,-8.2660055,3.6053855,-0.11728604,0.16432263,0.20723587,0.8625,36.206253,-3.9562502,watch_1
15275515004881,1.4787644,-8.2660055,3.6053855,-0.11728604,0.16432263,0.20723587,1.8750001,36.075,-4.8562503,watch_1
15275511040246,1.6845472,-8.366505,2.9832516,-0.11728604,0.16432263,0.20723587,1.8750001,36.075,-4.8562503,watch_1
15275506077485,1.6845472,-8.366505,2.9832516,-0.27488914,0.18875721,0.2695441,1.8750001,36.075,-4.8562503,watch_1
15275525004829,1.6845472,-8.366505,2.9832516,-0.27488914,0.18875721,0.2695441,2.4750001,34.893753,-5.1000004,watch_1
15275535004777,1.6845472,-8.366505,2.9832516,-0.27488914,0.18875721,0.2695441,2.7375002,35.268753,-1.9125,watch_1
15275525151496,1.6319051,-8.993423,2.8109684,-0.22235478,0.22052218,0.3404044,2.7375002,35.268753,-1.9125,watch_1
15275530114256,1.6319051,-8.993423,2.8109684,-0.22235478,0.22052218,0.3404044,2.7375002,35.268753,-1.9125,watch_1
15275545004725,1.6319051,-8.993423,2.8109684,-0.22235478,0.22052218,0.3404044,2.6625001,36.131252,-3.16875,watch_1
15275555004673,1.6319051,-8.993423,2.8109684,-0.22235478,0.22052218,0.3404044,2.5687501,35.41875,-3.1125002,watch_1
15275544224517,1.3112668,-10.084551,2.9210382,0.067195125,0.2583958,0.3440696,2.5687501,35.41875,-3.1125002,watch_1
15275549187277,1.3112668,-10.084551,2.9210382,0.067195125,0.2583958,0.3440696,2.5687501,35.41875,-3.1125002,watch_1
15275565004621,1.3112668,-10.084551,2.9210382,0.067195125,0.2583958,0.3440696,1.25625,36.018753,-5.64375,watch_1
15275575004569,1.3112668,-10.084551,2.9210382,0.067195125,0.2583958,0.3440696,3.525,33.131252,-2.9250002,watch_1
15275568261235,0.9236295,-10.888539,3.313461,0.54489136,0.2864956,0.2952004,3.525,33.131252,-2.9250002,watch_1
15275563298475,0.9236295,-10.888539,3.313461,0.54489136,0.2864956,0.2952004,3.525,33.131252,-2.9250002,watch_1
15275585004517,0.9236295,-10.888539,3.313461,0.54489136,0.2864956,0.2952004,1.06875,32.86875,-5.2125,watch_1
15275595004465,0.9236295,-10.888539,3.313461,0.54489136,0.2864956,0.2952004,3.24375,34.987503,-5.3250003,watch_1
15275587334256,1.0049855,-10.012766,3.8398821,0.9932661,0.2828304,0.20479241,3.24375,34.987503,-5.3250003,watch_1
15275582371496,1.0049855,-10.012766,3.8398821,0.9932661,0.2828304,0.20479241,3.24375,34.987503,-5.3250003,watch_1
15275605004412,1.0049855,-10.012766,3.8398821,0.9932661,0.2828304,0.20479241,4.125,34.96875,-5.0625,watch_1
15275615004360,1.0049855,-10.012766,3.8398821,0.9932661,0.2828304,0.20479241,0.93750006,34.55625,-5.68125,watch_1
15275606408267,1.119841,-8.825927,4.19402,1.0848958,0.29871288,0.1339321,0.93750006,34.55625,-5.68125,watch_1
15275601445506,1.119841,-8.825927,4.19402,1.0848958,0.29871288,0.1339321,0.93750006,34.55625,-5.68125,watch_1
15275625004308,1.119841,-8.825927,4.19402,1.0848958,0.29871288,0.1339321,3.3187501,36.018753,-6.43125,watch_1
15275635004256,1.119841,-8.825927,4.19402,1.0848958,0.29871288,0.1339321,2.8875,36.2625,-7.0875,watch_1
15275625451235,1.1294123,-8.112865,4.49073,1.0848958,0.29871288,0.1339321,2.8875,36.2625,-7.0875,watch_1
15275620488475,1.1294123,-8.112865,4.49073,0.61452997,0.28405213,0.07895427,2.8875,36.2625,-7.0875,watch_1
15275645004204,1.1294123,-8.112865,4.49073,0.61452997,0.28405213,0.07895427,1.5937501,33.80625,-5.68125,watch_1
15275639561496,1.1294123,-8.112865,4.49073,-0.091629714,0.24251331,0.06551525,3.9750001,34.0125,-8.043751,watch_1
15275655004152,1.0336994,-8.529217,4.38066,-0.091629714,0.24251331,0.06551525,3.9750001,34.0125,-8.043751,watch_1
15275644524256,1.0336994,-8.529217,4.38066,-0.091629714,0.24251331,0.06551525,3.9750001,34.0125,-8.043751,watch_1
15275665004100,1.0336994,-8.529217,4.38066,-0.091629714,0.24251331,0.06551525,2.98125,34.443752,-7.18125,watch_1
15275658634517,0.7800602,-9.869197,4.016951,-0.51190466,0.2046397,0.07895427,3.5625002,33.9,-5.6062503,watch_1
15275675004048,0.7800602,-9.869197,4.016951,-0.51190466,0.2046397,0.07895427,3.5625002,33.9,-5.6062503,watch_1
15275663597277,0.7800602,-9.869197,4.016951,-0.51190466,0.2046397,0.07895427,3.5625002,33.9,-5.6062503,watch_1
15275685003996,0.7800602,-9.869197,4.016951,-0.51190466,0.2046397,0.07895427,3.7125,34.0875,-6.76875,watch_1
15275677708475,0.6029913,-10.390832,3.8638103,-0.4007273,0.18631376,0.06307179,4.6687503,35.737503,-5.2312503,watch_1
15275682671235,0.6029913,-10.390832,3.8638103,-0.4007273,0.18631376,0.06307179,4.6687503,35.737503,-5.2312503,watch_1
15275695003944,0.6029913,-10.390832,3.8638103,-0.4007273,0.18631376,0.06307179,4.6687503,35.737503,-5.2312503,watch_1
15275705003892,0.6029913,-10.390832,3.8638103,-0.4007273,0.18631376,0.06307179,3.43125,34.350002,-6.8250003,watch_1
15275701744256,0.70348984,-9.71127,3.7250266,-0.091629714,0.19730933,-0.016340632,3.4125001,34.050003,-6.2250004,watch_1
15275696781496,0.70348984,-9.71127,3.7250266,-0.091629714,0.19730933,-0.016340632,3.4125001,34.050003,-6.2250004,watch_1
15275715003840,0.70348984,-9.71127,3.7250266,-0.091629714,0.19730933,-0.016340632,3.4125001,34.050003,-6.2250004,watch_1
15275725003787,0.70348984,-9.71127,3.7250266,-0.091629714,0.19730933,-0.016340632,3.16875,34.575,-6.3,watch_1
15275720818267,0.7178468,-8.983852,4.284947,0.11484258,0.16798781,-0.04444041,3.16875,34.575,-6.3,watch_1
15275715855506,0.7178468,-8.983852,4.284947,0.11484258,0.16798781,-0.04444041,3.16875,34.575,-6.3,watch_1
15275735003735,0.7178468,-8.983852,4.284947,0.11484258,0.16798781,-0.04444041,3.3375,34.893753,-6.7500005,watch_1
15275745003683,0.7178468,-8.983852,4.284947,0.11484258,0.16798781,-0.04444041,1.2375001,36.037502,-6.95625,watch_1
15275739891235,0.4211368,-8.620144,4.744369,0.06475167,0.126449,-0.04444041,1.2375001,36.037502,-6.95625,watch_1
15275734928475,0.4211368,-8.620144,4.744369,0.06475167,0.126449,-0.04444041,1.2375001,36.037502,-6.95625,watch_1
15275755003631,0.4211368,-8.620144,4.744369,0.06475167,0.126449,-0.04444041,3.2812502,34.162502,-5.6625004,watch_1
15275765003579,0.4211368,-8.620144,4.744369,0.06475167,0.126449,-0.04444041,3.3750002,35.175003,-6.4875,watch_1
15275758965246,0.28713873,-8.816355,4.447659,-0.13927718,0.09346231,-0.04444041,3.3750002,35.175003,-6.4875,watch_1
15275754002485,0.28713873,-8.816355,4.447659,-0.13927718,0.09346231,-0.04444041,3.3750002,35.175003,-6.4875,watch_1
15275775003527,0.28713873,-8.816355,4.447659,-0.13927718,0.09346231,-0.04444041,3.6562502,34.93125,-6.7125,watch_1
15275785003475,0.28713873,-8.816355,4.447659,-0.13927718,0.09346231,-0.04444041,4.2562504,34.6875,-5.175,watch_1
15275778038267,0.38763726,-9.500702,3.7633119,-0.3555233,0.08002329,-0.04444041,4.2562504,34.6875,-5.175,watch_1
15275773075506,0.38763726,-9.500702,3.7633119,-0.3555233,0.08002329,-0.04444041,4.2562504,34.6875,-5.175,watch_1
15275795003423,0.38763726,-9.500702,3.7633119,-0.3555233,0.08002329,-0.04444041,4.4812503,35.5875,-5.6625004,watch_1
15275805003371,0.38763726,-9.500702,3.7633119,-0.3555233,0.08002329,-0.04444041,3.6562502,33.3375,-5.1000004,watch_1
15275797112277,0.51206404,-9.759128,3.7298124,-0.3555233,0.08002329,-0.04444041,3.6562502,33.3375,-5.1000004,watch_1
15275792149517,0.51206404,-9.759128,3.7298124,-0.4007273,0.06169734,-0.06276636,3.6562502,33.3375,-5.1000004,watch_1
15275815003319,0.51206404,-9.759128,3.7298124,-0.4007273,0.06169734,-0.06276636,5.0437503,35.25,-6.15,watch_1
15275825003267,0.51206404,-9.759128,3.7298124,-0.4007273,0.06169734,-0.06276636,3.54375,35.025,-5.2875004,watch_1
15275816155246,0.5982057,-9.323633,3.758526,-0.4007273,0.06169734,-0.06276636,3.54375,35.025,-5.2875004,watch_1
15275811192485,0.5982057,-9.323633,3.758526,-0.28221953,0.051923506,-0.046883874,3.54375,35.025,-5.2875004,watch_1
15275835003215,0.5982057,-9.323633,3.758526,-0.28221953,0.051923506,-0.046883874,3.5062501,33.46875,-5.5687504,watch_1
15275835228267,0.7082755,-9.59163,3.868596,-0.13194679,0.053145237,-0.055435978,3.7875001,35.90625,-5.1937504,watch_1
15275845003162,0.7082755,-9.59163,3.868596,-0.13194679,0.053145237,-0.055435978,3.7875001,35.90625,-5.1937504,watch_1
15275830265506,0.7082755,-9.59163,3.868596,-0.13194679,0.053145237,-0.055435978,3.7875001,35.90625,-5.1937504,watch_1
15275855003110,0.7082755,-9.59163,3.868596,-0.13194679,0.053145237,-0.055435978,3.2812502,33.84375,-4.33125,watch_1
15275854302277,1.0480564,-9.381062,3.3086755,-0.018325943,0.034819294,-0.072540194,3.2812502,33.84375,-4.33125,watch_1
15275849339517,1.0480564,-9.381062,3.3086755,-0.018325943,0.034819294,-0.072540194,3.2812502,33.84375,-4.33125,watch_1
15275865003058,1.0480564,-9.381062,3.3086755,-0.018325943,0.034819294,-0.072540194,4.59375,36.600002,-5.7562504,watch_1
15275875003006,1.0480564,-9.381062,3.3086755,-0.018325943,0.034819294,-0.072540194,2.79375,35.25,-6.6937504,watch_1
15275885002954,1.0480564,-9.381062,3.3086755,0.124616414,0.11178826,-0.092087865,3.6750002,36.318752,-5.4,watch_1
15275868412485,1.0480564,-9.381062,3.3086755,0.124616414,0.11178826,-0.092087865,3.6750002,36.318752,-5.4,watch_1
15275873375246,0.9379865,-9.601201,3.3326037,0.124616414,0.11178826,-0.092087865,3.6750002,36.318752,-5.4,watch_1
15275895002902,0.9379865,-9.601201,3.3326037,0.124616414,0.11178826,-0.092087865,4.275,35.15625,-6.2250004,watch_1
15275887486496,0.8422736,-9.290133,3.7537405,0.080634154,0.12889247,-0.1348484,3.075,35.1375,-6.80625,watch_1
15275905002850,0.8422736,-9.290133,3.7537405,0.080634154,0.12889247,-0.1348484,3.075,35.1375,-6.80625,watch_1
15275892449256,0.8422736,-9.290133,3.7537405,0.080634154,0.12889247,-0.1348484,3.075,35.1375,-6.80625,watch_1
15275915002798,0.8422736,-9.290133,3.7537405,0.080634154,0.12889247,-0.1348484,3.075,35.1375,-6.80625,watch_1
15275906559517,0.7848458,-8.974281,4.299304,-0.047647454,0.10079269,-0.10308343,4.65,35.756252,-5.5125003,watch_1
15275925002746,0.7848458,-8.974281,4.299304,-0.047647454,0.10079269,-0.10308343,4.65,35.756252,-5.5125003,watch_1
15275911522277,0.7848458,-8.974281,4.299304,-0.047647454,0.10079269,-0.10308343,4.65,35.756252,-5.5125003,watch_1
15275935002694,0.7848458,-8.974281,4.299304,-0.047647454,0.10079269,-0.10308343,3.0937502,34.800003,-4.14375,watch_1
15275930596235,0.70348984,-9.084352,4.471587,-0.047647454,0.10079269,-0.10308343,3.0937502,34.800003,-4.14375,watch_1
15275925633475,0.70348984,-9.084352,4.471587,-0.20280711,0.037262753,-0.10063997,3.0937502,34.800003,-4.14375,watch_1
15275945002642,0.70348984,-9.084352,4.471587,-0.20280711,0.037262753,-0.10063997,3.45,34.331253,-5.9625,watch_1
15275955002590,0.70348984,-9.084352,4.471587,-0.20280711,0.037262753,-0.10063997,2.5687501,34.331253,-4.74375,watch_1
15275949669256,0.6269195,-9.247063,4.3375893,-0.17837252,-0.043371398,-0.099418245,2.5687501,34.331253,-4.74375,watch_1
15275944706496,0.6269195,-9.247063,4.3375893,-0.17837252,-0.043371398,-0.099418245,2.5687501,34.331253,-4.74375,watch_1
15275965002537,0.6269195,-9.247063,4.3375893,-0.17837252,-0.043371398,-0.099418245,2.4375,33.018753,-4.3500004,watch_1
15275975002485,0.6269195,-9.247063,4.3375893,-0.17837252,-0.043371398,-0.099418245,2.7375002,35.756252,-4.5750003,watch_1
15275963780506,0.6269195,-9.247063,4.3375893,-0.02687805,-0.08491021,-0.08720095,2.7375002,35.756252,-4.5750003,watch_1
15275968743267,0.5982057,-9.390633,4.0504503,-0.02687805,-0.08491021,-0.08720095,2.7375002,35.756252,-4.5750003,watch_1
15275985002433,0.5982057,-9.390633,4.0504503,-0.02687805,-0.08491021,-0.08720095,3.075,33.5625,-5.925,watch_1
15275995002381,1.0336994,-9.280562,3.6197424,-0.02687805,-0.08491021,-0.08720095,2.98125,34.125,-6.1312504,watch_1
15275987786235,1.0336994,-9.280562,3.6197424,-0.02687805,-0.08491021,-0.08720095,2.98125,34.125,-6.1312504,watch_1
15275982823475,1.0336994,-9.280562,3.6197424,0.10506874,-0.10445788,-0.08842268,2.98125,34.125,-6.1312504,watch_1
15276005002329,1.0336994,-9.280562,3.6197424,0.10506874,-0.10445788,-0.08842268,3.16875,35.831253,-5.55,watch_1
15276006859256,1.2969099,-8.883354,3.8255253,0.10506874,-0.10445788,-0.08842268,2.6625001,33.91875,-5.26875,watch_1
15276015002277,1.2969099,-8.883354,3.8255253,0.10506874,-0.10445788,-0.08842268,2.6625001,33.91875,-5.26875,watch_1
15276001896496,1.2969099,-8.883354,3.8255253,0.09040799,-0.08491021,-0.08964441,2.6625001,33.91875,-5.26875,watch_1
15276025002225,1.2969099,-8.883354,3.8255253,0.09040799,-0.08491021,-0.08964441,4.2000003,34.10625,-4.8375,watch_1
15276035002173,1.2969099,-8.883354,3.8255253,0.09040799,-0.08491021,-0.08964441,2.34375,35.006252,-5.26875,watch_1
15276025933267,1.3304094,-8.99821,3.19382,0.09040799,-0.08491021,-0.08964441,2.34375,35.006252,-5.26875,watch_1
15276020970506,1.3304094,-8.99821,3.19382,0.037873615,-0.056810424,-0.09697478,2.34375,35.006252,-5.26875,watch_1
15276045002121,1.3304094,-8.99821,3.19382,0.037873615,-0.056810424,-0.09697478,4.3875003,36.15,-6.01875,watch_1
15276045006235,1.2203395,-9.77827,2.9976087,0.1197295,0.011606431,-0.12873976,4.3875003,36.15,-6.01875,watch_1
15276040043475,1.2203395,-9.77827,2.9976087,0.1197295,0.011606431,-0.12873976,4.3875003,36.15,-6.01875,watch_1
15276055002069,1.2203395,-9.77827,2.9976087,0.1197295,0.011606431,-0.12873976,2.60625,34.78125,-6.24375,watch_1
15276065002017,1.2203395,-9.77827,2.9976087,0.1197295,0.011606431,-0.12873976,2.2125,34.03125,-6.5062504,watch_1
15276064080246,0.971486,-9.333204,3.7010984,0.1197295,0.011606431,-0.12873976,2.2125,34.03125,-6.5062504,watch_1
15276075001965,0.971486,-9.333204,3.7010984,0.26267186,0.06536253,-0.159283,3.43125,35.4375,-5.4750004,watch_1
15276059117485,0.971486,-9.333204,3.7010984,0.26267186,0.06536253,-0.159283,3.43125,35.4375,-5.4750004,watch_1
15276085001912,0.971486,-9.333204,3.7010984,0.26267186,0.06536253,-0.159283,2.7562501,34.95,-6.3750005,watch_1
15276078190506,0.971486,-9.333204,3.7010984,0.20525056,0.08124501,-0.13362667,2.7562501,34.95,-6.3750005,watch_1
15276083153267,0.5455636,-8.309076,4.720441,0.20525056,0.08124501,-0.13362667,3.7687502,35.925003,-6.2250004,watch_1
15276095001860,0.5455636,-8.309076,4.720441,0.20525056,0.08124501,-0.13362667,3.7687502,35.925003,-6.2250004,watch_1
15276105001808,0.5455636,-8.309076,4.720441,0.20525056,0.08124501,-0.13362667,1.63125,33.768753,-4.36875,watch_1
15276102227277,0.6125626,-9.218349,4.4859443,-0.067195125,0.0042760535,-0.12873976,2.6625001,35.34375,-5.5687504,watch_1
15276097264517,0.6125626,-9.218349,4.4859443,-0.067195125,0.0042760535,-0.12873976,2.6625001,35.34375,-5.5687504,watch_1
15276115001756,0.6125626,-9.218349,4.4859443,-0.067195125,0.0042760535,-0.12873976,2.6625001,35.34375,-5.5687504,watch_1
15276125001704,0.6125626,-9.218349,4.4859443,-0.067195125,0.0042760535,-0.12873976,3.43125,34.0125,-4.9125004,watch_1
15276121300246,0.9810573,-8.983852,4.241876,-0.17592905,-0.04214967,-0.116522454,3.43125,34.0125,-4.9125004,watch_1
15276116337485,0.9810573,-8.983852,4.241876,-0.17592905,-0.04214967,-0.116522454,3.43125,34.0125,-4.9125004,watch_1
15276135001652,0.9810573,-8.983852,4.241876,-0.17592905,-0.04214967,-0.116522454,4.03125,33.9375,-4.2562504,watch_1
15276145001600,0.9810573,-8.983852,4.241876,-0.17592905,-0.04214967,-0.116522454,3.8812501,35.362503,-5.2875004,watch_1
15276140374256,0.5455636,-8.605786,4.3328037,-0.05986475,-0.060475614,-0.0810923,3.8812501,35.362503,-5.2875004,watch_1
15276135411496,0.5455636,-8.605786,4.3328037,-0.05986475,-0.060475614,-0.0810923,3.8812501,35.362503,-5.2875004,watch_1
15276155001548,0.5455636,-8.605786,4.3328037,-0.05986475,-0.060475614,-0.0810923,2.53125,34.050003,-5.15625,watch_1
15276165001496,0.5455636,-8.605786,4.3328037,-0.05986475,-0.060475614,-0.0810923,4.2000003,34.443752,-6.7500005,watch_1
15276159447277,1.038485,-10.984252,3.3661032,-0.05986475,-0.060475614,-0.0810923,4.2000003,34.443752,-6.7500005,watch_1
15276154484517,1.038485,-10.984252,3.3661032,-0.046425723,-0.06780599,-0.13607013,4.2000003,34.443752,-6.7500005,watch_1
15276175001444,1.038485,-10.984252,3.3661032,-0.046425723,-0.06780599,-0.13607013,2.5875,34.3125,-4.4625,watch_1
15276185001392,1.038485,-10.984252,3.3661032,-0.046425723,-0.06780599,-0.13607013,1.3875,33.206253,-5.7937503,watch_1
15276178490246,1.5314065,-10.500902,3.5910287,-0.08552107,-0.04459313,-0.22281294,1.3875,33.206253,-5.7937503,watch_1
15276173527485,1.5314065,-10.500902,3.5910287,-0.08552107,-0.04459313,-0.22281294,1.3875,33.206253,-5.7937503,watch_1
15276195001340,1.5314065,-10.500902,3.5910287,-0.08552107,-0.04459313,-0.22281294,1.3125,32.643753,-6.1687503,watch_1
15276205001287,0.80877405,-9.553345,3.9834516,-0.08552107,-0.04459313,-0.22281294,1.6500001,34.068752,-4.6875,watch_1
15276197564256,0.80877405,-9.553345,3.9834516,-0.08552107,-0.04459313,-0.22281294,1.6500001,34.068752,-4.6875,watch_1
15276192601496,0.80877405,-9.553345,3.9834516,0.03054324,0.033597562,-0.3376555,1.6500001,34.068752,-4.6875,watch_1
15276215001235,0.80877405,-9.553345,3.9834516,0.03054324,0.033597562,-0.3376555,2.4562502,34.912502,-6.1312504,watch_1
15276225001183,0.80877405,-9.553345,3.9834516,0.03054324,0.033597562,-0.3376555,1.125,33.61875,-6.58125,watch_1
15276216637277,0.3493521,-8.945567,4.859225,0.03054324,0.033597562,-0.3376555,1.125,33.61875,-6.58125,watch_1
15276211674517,0.3493521,-8.945567,4.859225,-0.039095346,0.0042760535,-0.3339903,1.9125,33.675003,-4.7625003,watch_1
15276235001131,0.3493521,-8.945567,4.859225,-0.039095346,0.0042760535,-0.3339903,1.9125,33.675003,-4.7625003,watch_1
15276245001079,0.76570326,-8.734999,4.758726,-0.039095346,0.0042760535,-0.3339903,2.6625001,35.34375,-5.5687504,watch_1
15276235711235,0.76570326,-8.734999,4.758726,-0.039095346,0.0042760535,-0.3339903,2.6625001,35.34375,-5.5687504,watch_1
15276230748475,0.76570326,-8.734999,4.758726,-0.16371176,-0.09834923,-0.31810784,2.6625001,35.34375,-5.5687504,watch_1
15276255001027,0.76570326,-8.734999,4.758726,-0.16371176,-0.09834923,-0.31810784,1.25625,34.912502,-6.6937504,watch_1
15276254784256,1.4069797,-9.141779,4.2945185,-0.16859868,-0.18631376,-0.30711228,1.25625,34.912502,-6.6937504,watch_1
15276249821496,1.4069797,-9.141779,4.2945185,-0.16859868,-0.18631376,-0.30711228,1.25625,34.912502,-6.6937504,watch_1
15276265000975,1.4069797,-9.141779,4.2945185,-0.16859868,-0.18631376,-0.30711228,1.725,34.800003,-5.4750004,watch_1
15276275000923,1.4069797,-9.141779,4.2945185,-0.16859868,-0.18631376,-0.30711228,0.24375,33.9375,-7.1625004,watch_1
15276285000871,1.4069797,-9.141779,4.2945185,-0.14782928,-0.20097451,-0.33887723,0.88125,33.80625,-4.3125,watch_1
15276268894517,1.4069797,-9.141779,4.2945185,-0.14782928,-0.20097451,-0.33887723,0.88125,33.80625,-4.3125,watch_1
15276273857277,1.3639089,-8.830712,3.9116669,-0.14782928,-0.20097451,-0.33887723,0.88125,33.80625,-4.3125,watch_1
15276295000819,1.3639089,-8.830712,3.9116669,-0.14782928,-0.20097451,-0.33887723,0.91875005,33.318752,-7.0125003,watch_1
15276287968475,1.3639089,-8.830712,3.9116669,-0.1075122,-0.18875721,-0.34254244,0.88125,33.825,-4.89375,watch_1
15276305000767,1.3639089,-8.830712,3.9116669,-0.1075122,-0.18875721,-0.34254244,0.88125,33.825,-4.89375,watch_1
15276292931235,1.1102697,-9.754341,3.4283166,-0.1075122,-0.18875721,-0.34254244,0.88125,33.825,-4.89375,watch_1
15276312004256,1.8664017,-8.725428,3.8350966,-0.21991132,-0.17776164,-0.38530296,-0.056250002,34.987503,-5.11875,watch_1
15276307041496,1.8664017,-8.725428,3.8350966,-0.21991132,-0.17776164,-0.38530296,-0.056250002,34.987503,-5.11875,watch_1
15276315000715,1.8664017,-8.725428,3.8350966,-0.1075122,-0.18875721,-0.34254244,-0.056250002,34.987503,-5.11875,watch_1
15276325000662,1.8664017,-8.725428,3.8350966,-0.21991132,-0.17776164,-0.38530296,0.65625,34.66875,-5.5875,watch_1
15276335000610,1.8664017,-8.725428,3.8350966,-0.21991132,-0.17776164,-0.38530296,0.0375,33.0,-4.33125,watch_1
15276331078267,1.6175481,-8.677571,4.6007996,-0.25900668,-0.20341797,-0.36453354,0.0375,33.0,-4.33125,watch_1
15276326115506,1.6175481,-8.677571,4.6007996,-0.25900668,-0.20341797,-0.36453354,0.0375,33.0,-4.33125,watch_1
15276345000558,1.6175481,-8.677571,4.6007996,-0.25900668,-0.20341797,-0.36453354,0.69375,34.612503,-3.54375,watch_1
15276355000506,1.6175481,-8.677571,4.6007996,-0.25900668,-0.20341797,-0.36453354,0.35625002,33.018753,-3.2625,watch_1
15276350121235,1.6414764,-8.816355,3.8973098,-0.37384924,-0.30970845,-0.398742,0.35625002,33.018753,-3.2625,watch_1
15276345158475,1.6414764,-8.816355,3.8973098,-0.37384924,-0.30970845,-0.398742,0.35625002,33.018753,-3.2625,watch_1
15276365000454,1.6414764,-8.816355,3.8973098,-0.37384924,-0.30970845,-0.398742,0.075,33.45,-4.9500003,watch_1
15276375000402,1.6414764,-8.816355,3.8973098,-0.37384924,-0.30970845,-0.398742,-0.95625,33.28125,-3.73125,watch_1
15276369194256,2.091327,-8.811569,3.126821,-0.37384924,-0.30970845,-0.398742,-0.95625,33.28125,-3.73125,watch_1
15276364231496,2.091327,-8.811569,3.126821,-0.2773326,-0.320704,-0.37308568,-0.95625,33.28125,-3.73125,watch_1
15276385000350,2.091327,-8.811569,3.126821,-0.2773326,-0.320704,-0.37308568,-1.5937501,32.90625,-3.6375,watch_1
15276395000298,2.091327,-8.811569,3.126821,-0.2773326,-0.320704,-0.37308568,-0.80625004,34.55625,-3.2625,watch_1
15276388268267,2.1678972,-8.682357,3.3278182,-0.3188714,-0.29260424,-0.36942047,-0.80625004,34.55625,-3.2625,watch_1
15276383305506,2.1678972,-8.682357,3.3278182,-0.3188714,-0.29260424,-0.36942047,-0.80625004,34.55625,-3.2625,watch_1
15276405000246,2.1678972,-8.682357,3.3278182,-0.3188714,-0.29260424,-0.36942047,0.65625,35.756252,-3.80625,watch_1
15276415000194,2.1678972,-8.682357,3.3278182,-0.3188714,-0.29260424,-0.36942047,0.90000004,33.787502,-3.0,watch_1
15276407341235,1.942972,-8.749356,3.4331024,-0.3188714,-0.29260424,-0.36942047,0.90000004,33.787502,-3.0,watch_1
15276402378475,1.942972,-8.749356,3.4331024,-0.3921752,-0.2791652,-0.3828595,0.90000004,33.787502,-3.0,watch_1
15276425000142,1.942972,-8.749356,3.4331024,-0.3921752,-0.2791652,-0.3828595,-1.125,37.068752,-3.2625,watch_1
15276435000090,1.942972,-8.749356,3.4331024,-0.3921752,-0.2791652,-0.3828595,-1.4250001,34.350002,-3.4687502,watch_1
15276426415246,1.5074782,-9.069994,3.9308095,-0.3921752,-0.2791652,-0.3828595,-1.4250001,34.350002,-3.4687502,watch_1
15276421452485,1.5074782,-9.069994,3.9308095,-0.4667007,-0.2791652,-0.38530296,-1.4250001,34.350002,-3.4687502,watch_1
15276445000037,1.5074782,-9.069994,3.9308095,-0.4667007,-0.2791652,-0.38530296,-1.7062501,34.275,-1.7437501,watch_1
15276454999985,1.5074782,-9.069994,3.9308095,-0.4667007,-0.2791652,-0.38530296,-1.7062501,34.275,-1.7437501,watch_1
15276440525506,1.875973,-9.203992,3.6053855,-0.57787806,-0.3866774,-0.38774642,-1.7062501,34.275,-1.7437501,watch_1
15276445488267,1.875973,-9.203992,3.6053855,-0.57787806,-0.3866774,-0.38774642,-1.7062501,34.275,-1.7437501,watch_1
15276464999933,1.875973,-9.203992,3.6053855,-0.57787806,-0.3866774,-0.38774642,-2.7,33.600002,-3.3937502,watch_1
15276464562277,2.6416762,-9.601201,2.964109,-0.59498227,-0.43065968,-0.3828595,-2.7,33.600002,-3.3937502,watch_1
15276459599517,2.6416762,-9.601201,2.964109,-0.59498227,-0.43065968,-0.3828595,-2.7,33.600002,-3.3937502,watch_1
15276474999881,2.6416762,-9.601201,2.964109,-0.59498227,-0.43065968,-0.3828595,-1.63125,34.8375,-1.2,watch_1
15276484999829,2.6416762,-9.601201,2.964109,-0.59498227,-0.43065968,-0.3828595,-1.63125,34.8375,-1.2,watch_1
15276478672485,2.9671001,-8.955139,2.00698,-0.5412262,-0.40011644,-0.41951138,-3.7875001,33.16875,-2.4562502,watch_1
15276494999777,2.9671001,-8.955139,2.00698,-0.5412262,-0.40011644,-0.41951138,-3.7875001,33.16875,-2.4562502,watch_1
15276483635246,2.9671001,-8.955139,2.00698,-0.5412262,-0.40011644,-0.41951138,-3.7875001,33.16875,-2.4562502,watch_1
15276502709256,2.4741786,-8.682357,2.8253253,-0.5412262,-0.40011644,-0.41951138,-3.3187501,34.4625,-0.7875,watch_1
15276504999725,2.4741786,-8.682357,2.8253253,-0.5412262,-0.40011644,-0.41951138,-3.3187501,34.4625,-0.7875,watch_1
15276497746496,2.4741786,-8.682357,2.8253253,-0.4214967,-0.29749113,-0.37919432,-3.3187501,34.4625,-0.7875,watch_1
15276514999673,2.4741786,-8.682357,2.8253253,-0.4214967,-0.29749113,-0.37919432,-3.4125001,33.45,-0.41250002,watch_1
15276524999621,2.2157538,-8.644072,3.0789645,-0.4214967,-0.29749113,-0.37919432,-2.025,33.75,0.6,watch_1
15276521752277,2.2157538,-8.644072,3.0789645,-0.4214967,-0.29749113,-0.37919432,-2.025,33.75,0.6,watch_1
15276534999569,2.2157538,-8.644072,3.0789645,-0.5656608,-0.28893903,-0.37186393,-2.5125,33.075,2.6437502,watch_1
15276544999517,2.2157538,-8.644072,3.0789645,-0.5656608,-0.28893903,-0.37186393,-3.6562502,32.25,1.575,watch_1
15276516789517,2.2157538,-8.644072,3.0789645,-0.5656608,-0.28893903,-0.37186393,-3.6562502,32.25,1.575,watch_1
15276535862485,2.2157538,-8.644072,3.0789645,-0.6988293,-0.29626942,-0.35231626,-3.6562502,32.25,1.575,watch_1
15276540825246,2.2827528,-9.113065,2.3515465,-0.6988293,-0.29626942,-0.35231626,-3.6562502,32.25,1.575,watch_1
15276554999465,2.2827528,-9.113065,2.3515465,-0.6988293,-0.29626942,-0.35231626,-1.3125,29.75625,6.15,watch_1
15276564999412,2.2827528,-9.113065,2.3515465,-0.6988293,-0.29626942,-0.35231626,-2.86875,29.2875,5.2875004,watch_1
15276559899256,2.4598217,-9.223135,2.4711876,-0.6988293,-0.29626942,-0.35231626,-2.86875,29.2875,5.2875004,watch_1
15276554936496,2.4598217,-9.223135,2.4711876,-0.750142,-0.2706131,-0.3413207,-2.86875,29.2875,5.2875004,watch_1
15276574999360,2.4598217,-9.223135,2.4711876,-0.750142,-0.2706131,-0.3413207,-2.8125,31.462502,3.6375,watch_1
15276584999308,2.4598217,-9.223135,2.4711876,-0.750142,-0.2706131,-0.3413207,-3.54375,33.24375,1.7812501,watch_1
15276578972277,2.7421749,-9.11785,2.3659034,-0.750142,-0.2706131,-0.3413207,-3.54375,33.24375,1.7812501,watch_1
15276574009517,2.7421749,-9.11785,2.3659034,-0.7440333,-0.28527385,-0.3046688,-3.54375,33.24375,1.7812501,watch_1
15276594999256,2.7421749,-9.11785,2.3659034,-0.7440333,-0.28527385,-0.3046688,-3.525,33.525,1.7625,watch_1
15276604999204,2.7421749,-9.11785,2.3659034,-0.7440333,-0.28527385,-0.3046688,-3.9375002,32.49375,1.5187501,watch_1
15276598046235,2.8474588,-8.816355,2.437688,-0.8173371,-0.31337363,-0.27656904,-3.9375002,32.49375,1.5187501,watch_1
15276593083475,2.8474588,-8.816355,2.437688,-0.8173371,-0.31337363,-0.27656904,-3.9375002,32.49375,1.5187501,watch_1
15276614999152,2.8474588,-8.816355,2.437688,-0.8173371,-0.31337363,-0.27656904,-3.8812501,31.331251,2.79375,watch_1
15276624999100,2.8474588,-8.816355,2.437688,-0.8173371,-0.31337363,-0.27656904,-4.40625,33.225002,3.8625002,watch_1
15276617119256,2.5986054,-9.342776,1.6480566,-0.8173371,-0.31337363,-0.27656904,-4.40625,33.225002,3.8625002,watch_1
15276612156496,2.5986054,-9.342776,1.6480566,-0.8833105,-0.30237806,-0.2667952,-4.40625,33.225002,3.8625002,watch_1
15276634999048,2.5986054,-9.342776,1.6480566,-0.8833105,-0.30237806,-0.2667952,-4.6125,32.775,3.73125,watch_1
15276644998996,2.656033,-9.275777,1.0307083,-0.93828833,-0.25228715,-0.30100363,-4.89375,31.143751,5.7562504,watch_1
15276636193267,2.656033,-9.275777,1.0307083,-0.93828833,-0.25228715,-0.30100363,-4.89375,31.143751,5.7562504,watch_1
15276631230506,2.656033,-9.275777,1.0307083,-0.93828833,-0.25228715,-0.30100363,-4.89375,31.143751,5.7562504,watch_1
15276654998944,2.656033,-9.275777,1.0307083,-0.93828833,-0.25228715,-0.30100363,-5.25,32.25,4.7250004,watch_1
15276664998892,2.656033,-9.275777,1.0307083,-0.93828833,-0.25228715,-0.30100363,-4.1625004,32.831253,3.7875001,watch_1
15276655266235,2.6703901,-9.227921,1.5475581,-0.93828833,-0.25228715,-0.30100363,-4.1625004,32.831253,3.7875001,watch_1
15276650303475,2.6703901,-9.227921,1.5475581,-0.79045904,-0.1960876,-0.2790125,-4.1625004,32.831253,3.7875001,watch_1
15276674998840,2.6703901,-9.227921,1.5475581,-0.79045904,-0.1960876,-0.2790125,-5.90625,31.743752,4.8562503,watch_1
15276674340246,3.0053852,-8.979067,1.6193427,-0.8173371,-0.2046397,-0.24846925,-4.1062503,33.09375,4.78125,watch_1
15276684998787,3.0053852,-8.979067,1.6193427,-0.8173371,-0.2046397,-0.24846925,-4.1062503,33.09375,4.78125,watch_1
15276669377485,3.0053852,-8.979067,1.6193427,-0.8173371,-0.2046397,-0.24846925,-4.1062503,33.09375,4.78125,watch_1
15276694998735,3.0053852,-8.979067,1.6193427,-0.8173371,-0.2046397,-0.24846925,-4.55625,33.037502,5.025,watch_1
15276704998683,3.0053852,-8.979067,1.6193427,-0.9468404,-0.18142684,-0.23991714,-6.05625,31.556252,5.71875,watch_1
15276688450506,3.0053852,-8.979067,1.6193427,-0.9468404,-0.18142684,-0.23991714,-6.05625,31.556252,5.71875,watch_1
15276693413267,3.3930225,-9.127422,0.3080759,-0.9468404,-0.18142684,-0.23991714,-6.05625,31.556252,5.71875,watch_1
15276714998631,3.3930225,-9.127422,0.3080759,-0.9468404,-0.18142684,-0.23991714,-5.9812503,33.7125,4.65,watch_1
15276707493475,3.3930225,-9.127422,0.3080759,-1.0225877,-0.1301142,-0.19960007,-5.9812503,33.7125,4.65,watch_1
15276724998579,3.062813,-9.29492,0.5282156,-1.0225877,-0.1301142,-0.19960007,-5.90625,32.5125,8.418751,watch_1
15276712456235,3.062813,-9.29492,0.5282156,-1.0225877,-0.1301142,-0.19960007,-5.90625,32.5125,8.418751,watch_1
15276734998527,3.062813,-9.29492,0.5282156,-1.0225877,-0.1301142,-0.19960007,-5.775,31.143751,6.8250003,watch_1
15276731530246,2.952743,-9.491131,0.28893334,-0.95172733,-0.10690133,-0.1763872,-5.775,31.143751,6.8250003,watch_1
15276726567485,2.952743,-9.491131,0.28893334,-0.95172733,-0.10690133,-0.1763872,-5.775,31.143751,6.8250003,watch_1
15276744998475,2.952743,-9.491131,0.28893334,-0.95172733,-0.10690133,-0.1763872,-5.5687504,31.725,6.9375005,watch_1
15276754998423,2.952743,-9.491131,0.28893334,-0.95172733,-0.10690133,-0.1763872,-5.9625,32.100002,7.425,watch_1
15276750603267,3.2638102,-8.902496,-0.13220344,-0.95172733,-0.10690133,-0.1763872,-5.9625,32.100002,7.425,watch_1
15276745640506,3.2638102,-8.902496,-0.13220344,-0.83688474,-0.07391464,-0.17394374,-5.8500004,33.09375,7.93125,watch_1
15276764998371,3.2638102,-8.902496,-0.13220344,-0.83688474,-0.07391464,-0.17394374,-5.8500004,33.09375,7.93125,watch_1
15276774998319,3.2638102,-8.902496,-0.13220344,-0.83688474,-0.07391464,-0.17394374,-6.9375005,32.662502,7.55625,watch_1
15276769677277,3.211168,-9.199206,0.6478567,-0.83688474,-0.07391464,-0.17394374,-6.9375005,32.662502,7.55625,watch_1
15276764714517,3.211168,-9.199206,0.6478567,-0.72815084,-0.05070178,-0.1311832,-5.025,32.49375,7.2000003,watch_1
15276784998267,3.211168,-9.199206,0.6478567,-0.72815084,-0.05070178,-0.1311832,-5.025,32.49375,7.2000003,watch_1
15276794998215,3.211168,-9.199206,0.6478567,-0.72815084,-0.05070178,-0.1311832,-7.8750005,30.825,8.925,watch_1
15276788750246,3.397808,-9.381062,0.3894319,-0.8796453,-0.064140804,-0.117744185,-7.8750005,30.825,8.925,watch_1
15276783787485,3.211168,-9.199206,0.6478567,-0.8796453,-0.064140804,-0.117744185,-7.8750005,30.825,8.925,watch_1
15276804998162,3.397808,-9.381062,0.3894319,-0.8796453,-0.064140804,-0.117744185,-6.3,31.44375,9.056251,watch_1
15276807824256,3.5700915,-9.270991,-1.4386846,-0.93951005,-0.033597562,-0.12140937,-5.86875,29.79375,9.993751,watch_1
15276802861496,3.5700915,-9.270991,-1.4386846,-0.93951005,-0.033597562,-0.12140937,-5.86875,29.79375,9.993751,watch_1
15276814998110,3.5700915,-9.270991,-1.4386846,-0.93951005,-0.033597562,-0.12140937,-5.86875,29.79375,9.993751,watch_1
15276824998058,3.5700915,-9.270991,-1.4386846,-0.93951005,-0.033597562,-0.12140937,-5.7937503,30.50625,9.9375,watch_1
15276834998006,3.1058838,-9.156136,-0.907478,-0.93951005,-0.033597562,-0.12140937,-6.8437505,31.781252,9.543751,watch_1
15276826897277,3.1058838,-9.156136,-0.907478,-0.93951005,-0.033597562,-0.12140937,-6.8437505,31.781252,9.543751,watch_1
15276821934517,3.1058838,-9.156136,-0.907478,-0.79168075,0.04459313,-0.07987057,-6.8625,28.781252,10.856251,watch_1
15276844997954,3.1058838,-9.156136,-0.907478,-0.79168075,0.04459313,-0.07987057,-6.8625,28.781252,10.856251,watch_1
15276854997902,3.1058838,-9.156136,-0.907478,-0.79168075,0.04459313,-0.07987057,-5.2125,29.962502,11.94375,watch_1
15276845971235,2.7852457,-9.270991,0.14057833,-0.7672462,0.060475614,-0.043218683,-5.2125,29.962502,11.94375,watch_1
15276841008475,2.7852457,-9.270991,0.14057833,-0.7672462,0.060475614,-0.043218683,-5.2125,29.962502,11.94375,watch_1
15276864997850,2.7852457,-9.270991,0.14057833,-0.7672462,0.060475614,-0.043218683,-6.5437503,31.81875,9.8625,watch_1
15276860081496,3.345166,-9.7399845,-0.089132644,-0.8820887,0.0042760535,-0.06398808,-6.5437503,31.81875,9.8625,watch_1
15276865044256,3.345166,-9.7399845,-0.089132644,-0.8820887,0.0042760535,-0.06398808,-6.5437503,31.81875,9.8625,watch_1
15276884997746,3.345166,-9.7399845,-0.089132644,-0.8820887,0.0042760535,-0.06398808,-7.14375,31.425001,11.56875,watch_1
15276874997798,3.345166,-9.7399845,-0.089132644,-0.8820887,0.0042760535,-0.06398808,-7.14375,31.425001,11.56875,watch_1
15276894997694,3.3882368,-9.428918,-1.1419746,-0.80878496,-0.028710645,-0.072540194,-5.7000003,31.050001,11.19375,watch_1
15276884087277,3.3882368,-9.428918,-1.1419746,-0.80878496,-0.028710645,-0.072540194,-5.7000003,31.050001,11.19375,watch_1
15276879124517,3.3882368,-9.428918,-1.1419746,-0.80878496,-0.028710645,-0.072540194,-5.7000003,31.050001,11.19375,watch_1
15276904997642,3.3882368,-9.428918,-1.1419746,-0.80878496,-0.028710645,-0.072540194,-7.0687504,30.88125,11.0625,watch_1
15276914997590,2.8522446,-9.529416,-1.0845468,-0.5656608,-0.0140498895,-0.032223117,-5.7937503,30.018751,12.6,watch_1
15276898197485,2.8522446,-9.529416,-1.0845468,-0.5656608,-0.0140498895,-0.032223117,-5.7937503,30.018751,12.6,watch_1
15276903160246,2.8522446,-9.529416,-1.0845468,-0.5656608,-0.0140498895,-0.032223117,-5.7937503,30.018751,12.6,watch_1
15276924997537,2.8522446,-9.529416,-1.0845468,-0.5656608,-0.0140498895,-0.032223117,-5.53125,31.368752,11.043751,watch_1
15276922234256,3.2685957,-9.491131,-0.3475575,-0.5033526,-0.09346231,-0.0065667965,-5.53125,31.368752,11.043751,watch_1
15276917271496,3.2685957,-9.491131,-0.3475575,-0.5033526,-0.09346231,-0.0065667965,-5.53125,31.368752,11.043751,watch_1
15276934997485,3.2685957,-9.491131,-0.3475575,-0.5033526,-0.09346231,-0.0065667965,-6.9187503,29.306252,12.975,watch_1
15276944997433,3.2685957,-9.491131,-0.3475575,-0.5033526,-0.09346231,-0.0065667965,-6.4687505,29.38125,12.281251,watch_1
15276936344517,3.3882368,-9.840483,-1.0797613,-0.44959646,-0.083688475,-0.005345067,-6.4687505,29.38125,12.281251,watch_1
15276941307277,3.3882368,-9.840483,-1.0797613,-0.44959646,-0.083688475,-0.005345067,-6.4687505,29.38125,12.281251,watch_1
15276954997381,3.3882368,-9.840483,-1.0797613,-0.44959646,-0.083688475,-0.005345067,-4.59375,29.718752,14.3625,watch_1
15276964997329,3.3882368,-9.840483,-1.0797613,-0.44959646,-0.083688475,-0.005345067,-5.7562504,28.875002,13.575001,watch_1
15276960381235,3.034099,-9.759128,-1.2807583,-0.34941465,-0.083688475,0.022754714,-5.7562504,28.875002,13.575001,watch_1
15276955418475,3.034099,-9.759128,-1.2807583,-0.34941465,-0.083688475,0.022754714,-5.7562504,28.875002,13.575001,watch_1
15276974997277,3.034099,-9.759128,-1.2807583,-0.34941465,-0.083688475,0.022754714,-5.7937503,30.018751,13.031251,watch_1
15276984997225,3.034099,-9.759128,-1.2807583,-0.34941465,-0.083688475,0.022754714,-6.0937505,28.556252,13.275001,watch_1
15276974491496,2.804388,-9.605987,-1.2664014,-0.13561198,-0.09590577,0.025198173,-6.0937505,28.556252,13.275001,watch_1
15276979454256,2.804388,-9.605987,-1.2664014,-0.13561198,-0.09590577,0.025198173,-6.0937505,28.556252,13.275001,watch_1
15276994997173,2.804388,-9.605987,-1.2664014,-0.13561198,-0.09590577,0.025198173,-6.2812505,29.5125,13.1625,watch_1
15277004997121,2.804388,-9.605987,-1.2664014,-0.13561198,-0.09590577,0.025198173,-6.8250003,29.85,13.950001,watch_1
15276998528267,2.8666015,-9.8835535,-1.2664014,-0.037873615,-0.07880156,0.014202606,-6.8250003,29.85,13.950001,watch_1
15276993565506,2.8666015,-9.8835535,-1.2664014,-0.037873615,-0.07880156,0.014202606,-6.8250003,29.85,13.950001,watch_1
15277014997069,2.8666015,-9.8835535,-1.2664014,-0.037873615,-0.07880156,0.014202606,-5.925,29.812502,14.493751,watch_1
15277024997017,2.8666015,-9.8835535,-1.2664014,-0.037873615,-0.07880156,0.014202606,-6.3187504,30.337502,14.250001,watch_1
15277017601235,3.2063823,-9.113065,-0.91226363,-0.037873615,-0.07880156,0.014202606,-6.3187504,30.337502,14.250001,watch_1
15277012638475,3.2063823,-9.113065,-0.91226363,-0.08429934,-0.053145237,0.008093959,-6.3187504,30.337502,14.250001,watch_1
15277034996965,3.2063823,-9.113065,-0.91226363,-0.08429934,-0.053145237,0.008093959,-5.3625,28.181252,14.718751,watch_1
15277044996912,3.2063823,-9.113065,-0.91226363,-0.08429934,-0.053145237,0.008093959,-7.6687503,29.19375,13.181251,watch_1
15277036675246,3.3643086,-8.725428,-0.39541394,-0.13072506,-0.027488915,0.06307179,-7.6687503,29.19375,13.181251,watch_1
15277031712485,3.3643086,-8.725428,-0.39541394,-0.13072506,-0.027488915,0.06307179,-7.6687503,29.19375,13.181251,watch_1
15277054996860,3.3643086,-8.725428,-0.39541394,-0.13072506,-0.027488915,0.06307179,-5.8500004,30.54375,14.418751,watch_1
15277064996808,3.3643086,-8.725428,-0.39541394,-0.13072506,-0.027488915,0.06307179,-5.45625,28.7625,14.212501,watch_1
15277050785506,3.3834512,-8.940782,-0.4432704,-0.33353218,-0.023823727,0.10216714,-5.45625,28.7625,14.212501,watch_1
15277055748267,3.3834512,-8.940782,-0.4432704,-0.33353218,-0.023823727,0.10216714,-5.45625,28.7625,14.212501,watch_1
15277074996756,3.3834512,-8.940782,-0.4432704,-0.33353218,-0.023823727,0.10216714,-6.3,30.6375,13.931251,watch_1
15277074791235,2.7613173,-9.672985,-1.0941181,-0.4214967,-0.017715078,0.15714496,-6.3,30.6375,13.931251,watch_1
15277069828475,2.7613173,-9.672985,-1.0941181,-0.4214967,-0.017715078,0.15714496,-6.3,30.6375,13.931251,watch_1
15277084996704,2.7613173,-9.672985,-1.0941181,-0.4214967,-0.017715078,0.15714496,-6.0375004,28.81875,14.2875,watch_1
15277094996652,2.7613173,-9.672985,-1.0941181,-0.4214967,-0.017715078,0.15714496,-4.6312504,30.843752,14.38125,watch_1
15277088902485,2.7900312,-9.658628,-1.931606,-0.33231044,-0.018936807,0.17302746,-6.4687505,28.893751,14.94375,watch_1
15277104996600,2.7900312,-9.658628,-1.931606,-0.33231044,-0.018936807,0.17302746,-6.4687505,28.893751,14.94375,watch_1
15277093865246,2.7900312,-9.658628,-1.931606,-0.33231044,-0.018936807,0.17302746,-6.4687505,28.893751,14.94375,watch_1
15277114996548,2.7900312,-9.658628,-1.931606,-0.33231044,-0.018936807,0.17302746,-4.51875,30.431252,14.306251,watch_1
15277112938267,2.4789643,-7.2658057,-1.8933209,-0.19181155,0.14966187,0.2707658,-4.51875,30.431252,14.306251,watch_1
15277124996496,2.4789643,-7.2658057,-1.8933209,-0.19181155,0.14966187,0.2707658,-5.1000004,27.956251,13.743751,watch_1
15277107975506,2.4789643,-7.2658057,-1.8933209,-0.19181155,0.14966187,0.2707658,-5.1000004,27.956251,13.743751,watch_1
15277134996444,2.4789643,-7.2658057,-1.8933209,-0.19181155,0.14966187,0.2707658,-5.83125,29.41875,14.1,watch_1
15277132012277,2.8905299,-10.012766,0.23150559,-0.51801336,0.009162972,0.3245219,-5.83125,29.41875,14.1,watch_1
15277127049517,2.8905299,-10.012766,0.23150559,-0.51801336,0.009162972,0.3245219,-5.83125,29.41875,14.1,watch_1
15277144996392,2.8905299,-10.012766,0.23150559,-0.51801336,0.009162972,0.3245219,-6.1312504,28.10625,14.343751,watch_1
15277154996340,2.8905299,-10.012766,0.23150559,-0.51801336,0.009162972,0.3245219,-3.5812502,30.993752,13.762501,watch_1
15277151085246,3.249453,-10.524831,-1.6444674,-0.71226835,0.0018325944,0.22311836,-3.5812502,30.993752,13.762501,watch_1
15277146122485,3.249453,-10.524831,-1.6444674,-0.71226835,0.0018325944,0.22311836,-4.6312504,29.250002,15.712501,watch_1
15277164996287,3.249453,-10.524831,-1.6444674,-0.71226835,0.0018325944,0.22311836,-4.6312504,29.250002,15.712501,watch_1
15277174996235,3.249453,-10.524831,-1.6444674,-0.71226835,0.0018325944,0.22311836,-5.8875003,28.66875,15.76875,watch_1
15277170159256,2.4454648,-10.400404,-1.1946167,-0.11484258,-0.011606431,0.24877468,-5.8875003,28.66875,15.76875,watch_1
15277165196496,2.4454648,-10.400404,-1.1946167,-0.11484258,-0.011606431,0.24877468,-5.8875003,28.66875,15.76875,watch_1
15277184996183,2.4454648,-10.400404,-1.1946167,-0.11484258,-0.011606431,0.24877468,-6.4875,27.487501,14.64375,watch_1
15277194996131,2.4454648,-10.400404,-1.1946167,-0.11484258,-0.011606431,0.24877468,-4.2562504,29.868752,15.543751,watch_1
15277184269517,2.9575288,-9.510274,-2.3958137,-0.0036651888,-0.0140498895,0.20112723,-4.2562504,29.868752,15.543751,watch_1
15277189232277,2.9575288,-9.510274,-2.3958137,-0.0036651888,-0.0140498895,0.20112723,-4.2562504,29.868752,15.543751,watch_1
15277204996079,2.9575288,-9.510274,-2.3958137,-0.0036651888,-0.0140498895,0.20112723,-4.5750003,30.000002,13.89375,watch_1
15277214996027,2.9575288,-9.510274,-2.3958137,-0.0036651888,-0.0140498895,0.20112723,-4.0875,27.337502,15.95625,watch_1
15277208306235,3.359523,-9.677772,-1.3142579,-0.012217295,-0.016493348,0.21090107,-4.0875,27.337502,15.95625,watch_1
15277203343475,3.359523,-9.677772,-1.3142579,-0.012217295,-0.016493348,0.21090107,-4.0875,27.337502,15.95625,watch_1
15277224995975,3.359523,-9.677772,-1.3142579,-0.012217295,-0.016493348,0.21090107,-5.4187503,29.025002,15.056251,watch_1
15277227379256,2.7708886,-9.553345,-0.52941203,0.012217295,-0.03970621,0.21700971,-4.0687504,29.23125,13.89375,watch_1
15277222416496,2.7708886,-9.553345,-0.52941203,0.012217295,-0.03970621,0.21700971,-4.0687504,29.23125,13.89375,watch_1
15277234995923,2.7708886,-9.553345,-0.52941203,0.012217295,-0.03970621,0.21700971,-4.0687504,29.23125,13.89375,watch_1
15277244995871,2.7708886,-9.553345,-0.52941203,0.012217295,-0.03970621,0.21700971,-3.4875002,30.112501,15.750001,watch_1
15277254995819,2.7708886,-9.553345,-0.52941203,0.012217295,-0.03970621,0.21700971,-4.59375,29.7,14.94375,watch_1
15277246422277,2.105684,-10.30469,-2.012962,0.039095346,-0.0018325944,0.17424917,-4.59375,29.7,14.94375,watch_1
15277241459517,2.105684,-10.30469,-2.012962,0.039095346,-0.0018325944,0.17424917,-4.59375,29.7,14.94375,watch_1
15277264995767,2.105684,-10.30469,-2.012962,0.039095346,-0.0018325944,0.17424917,-3.73125,29.23125,15.675,watch_1
15277274995715,2.105684,-10.30469,-2.012962,0.039095346,-0.0018325944,0.17424917,-3.7500002,29.23125,15.225,watch_1
15277265496235,3.0723844,-10.199407,-1.0462617,-0.06352994,-0.060475614,0.08628465,-3.7500002,29.23125,15.225,watch_1
15277260533475,3.0723844,-10.199407,-1.0462617,-0.06352994,-0.060475614,0.08628465,-3.7500002,29.23125,15.225,watch_1
15277284995662,3.0723844,-10.199407,-1.0462617,-0.06352994,-0.060475614,0.08628465,-4.55625,29.98125,14.925,watch_1
15277284569256,3.3116665,-9.735199,-1.218545,-0.0097738365,0.0006108648,0.042302385,-4.55625,29.98125,14.925,watch_1
15277279606496,3.3116665,-9.735199,-1.218545,-0.0097738365,0.0006108648,0.042302385,-4.55625,29.98125,14.925,watch_1
15277294995610,3.3116665,-9.735199,-1.218545,-0.0097738365,0.0006108648,0.042302385,-4.3125,29.60625,14.250001,watch_1
15277304995558,3.3116665,-9.735199,-1.218545,-0.0097738365,0.0006108648,0.042302385,-4.3125,29.60625,14.250001,watch_1
15277303643267,3.656233,-9.093923,-0.89312106,0.02565632,0.016493348,0.042302385,-3.8812501,27.937502,15.337501,watch_1
15277314995506,3.656233,-9.093923,-0.89312106,0.02565632,0.016493348,0.042302385,-3.8812501,27.937502,15.337501,watch_1
15277298680506,3.656233,-9.093923,-0.89312106,0.02565632,0.016493348,0.042302385,-3.8812501,27.937502,15.337501,watch_1
15277324995454,3.656233,-9.093923,-0.89312106,0.02565632,0.016493348,0.042302385,-2.7,27.975,14.75625,watch_1
15277317753475,2.8187451,-9.524631,-0.67776704,-0.010995566,0.03604102,0.099723674,-2.7,27.975,14.75625,watch_1
15277322716235,2.8187451,-9.524631,-0.67776704,-0.010995566,0.03604102,0.099723674,-2.7,27.975,14.75625,watch_1
15277334995402,2.8187451,-9.524631,-0.67776704,-0.010995566,0.03604102,0.099723674,-3.0375001,30.16875,15.806251,watch_1
15277344995350,2.8187451,-9.524631,-0.67776704,-0.010995566,0.03604102,0.099723674,-3.9562502,28.800001,14.531251,watch_1
15277341790246,2.2588246,-10.280763,-1.486541,-0.010995566,0.03604102,0.099723674,-3.9562502,28.800001,14.531251,watch_1
15277336827485,2.2588246,-10.280763,-1.486541,-0.09651663,0.018936807,0.06551525,-3.9562502,28.800001,14.531251,watch_1
15277354995298,2.2588246,-10.280763,-1.486541,-0.09651663,0.018936807,0.06551525,-3.8812501,30.6375,15.075001,watch_1
15277364995246,2.2588246,-10.280763,-1.486541,-0.09651663,0.018936807,0.06551525,-4.425,28.125002,17.00625,watch_1
15277360863267,2.5507488,-9.830912,-1.4099708,0.08429934,-0.009162972,0.056963142,-4.425,28.125002,17.00625,watch_1
15277355900506,2.5507488,-9.830912,-1.4099708,0.08429934,-0.009162972,0.056963142,-4.425,28.125002,17.00625,watch_1
15277374995194,2.5507488,-9.830912,-1.4099708,0.08429934,-0.009162972,0.056963142,-3.61875,29.1375,14.1,watch_1
15277384995142,2.5507488,-9.830912,-1.4099708,0.08429934,-0.009162972,0.056963142,-3.5812502,29.41875,14.512501,watch_1
15277379937277,2.766103,-9.653843,-1.4913267,0.08429934,-0.009162972,0.056963142,-3.5812502,29.41875,14.512501,watch_1
15277374974517,2.766103,-9.653843,-1.4913267,0.15638138,0.028710645,0.037415467,-3.5812502,29.41875,14.512501,watch_1
15277394995090,2.766103,-9.653843,-1.4913267,0.15638138,0.028710645,0.037415467,-3.075,30.206251,13.462501,watch_1
15277404995037,2.766103,-9.653843,-1.4913267,0.15638138,0.028710645,0.037415467,-3.5812502,29.41875,14.793751,watch_1
15277394047485,2.766103,-9.653843,-1.4913267,0.13805544,0.10690133,0.048411034,-3.5812502,29.41875,14.793751,watch_1
15277399010246,2.9383862,-10.122836,-4.080361,0.13805544,0.10690133,0.048411034,-3.5812502,29.41875,14.793751,watch_1
15277414994985,2.9383862,-10.122836,-4.080361,0.13805544,0.10690133,0.048411034,-3.9,29.062502,15.525001,watch_1
15277424994933,2.9383862,-10.122836,-4.080361,0.13805544,0.10690133,0.048411034,-5.5125003,27.993752,16.1625,watch_1
15277418084256,3.1776686,-8.586644,2.0691934,-0.080634154,0.09590577,-0.028557928,-5.5125003,27.993752,16.1625,watch_1
15277413121496,3.1776686,-8.586644,2.0691934,-0.080634154,0.09590577,-0.028557928,-5.5125003,27.993752,16.1625,watch_1
15277434994881,3.1776686,-8.586644,2.0691934,-0.080634154,0.09590577,-0.028557928,-4.5750003,30.000002,14.325001,watch_1
15277444994829,3.1776686,-8.586644,2.0691934,-0.080634154,0.09590577,-0.028557928,-4.65,29.268751,14.681251,watch_1
15277437127277,1.253839,-9.749556,-2.9748766,0.36896232,0.18142684,0.13148865,-4.65,29.268751,14.681251,watch_1
15277432164517,1.253839,-9.749556,-2.9748766,0.36896232,0.18142684,0.13148865,-4.65,29.268751,14.681251,watch_1
15277454994777,1.253839,-9.749556,-2.9748766,0.36896232,0.18142684,0.13148865,-4.1625004,29.79375,13.387501,watch_1
15277464994725,1.253839,-9.749556,-2.9748766,0.36896232,0.18142684,0.13148865,-3.8625002,29.343752,16.518751,watch_1
15277456200246,3.455236,-9.515059,-1.6061822,0.11117739,-0.029932374,0.026419902,-3.8625002,29.343752,16.518751,watch_1
15277451237485,3.455236,-9.515059,-1.6061822,0.11117739,-0.029932374,0.026419902,-3.8625002,29.343752,16.518751,watch_1
15277474994673,3.455236,-9.515059,-1.6061822,0.11117739,-0.029932374,0.026419902,-2.8875,30.375002,13.9125,watch_1
15277484994621,3.455236,-9.515059,-1.6061822,0.11117739,-0.029932374,0.026419902,-3.8625002,29.831251,13.70625,watch_1
15277470311496,3.3930225,-9.247063,-1.2855439,0.4667007,0.005497783,0.10216714,-3.8625002,29.831251,13.70625,watch_1
15277475274256,3.3930225,-9.247063,-1.2855439,0.4667007,0.005497783,0.10216714,-3.8625002,29.831251,13.70625,watch_1
15277494994569,3.3930225,-9.247063,-1.2855439,0.4667007,0.005497783,0.10216714,-3.3187501,29.325,13.668751,watch_1
15277489384517,2.5794628,-9.108279,-1.352543,0.7941242,0.025045456,0.1375973,-3.3187501,29.325,13.668751,watch_1
15277494347277,2.5794628,-9.108279,-1.352543,0.7941242,0.025045456,0.1375973,-3.3187501,29.325,13.668751,watch_1
15277504994517,2.5794628,-9.108279,-1.352543,0.7941242,0.025045456,0.1375973,-4.7625003,28.275002,14.043751,watch_1
15277514994465,2.5794628,-9.108279,-1.352543,0.7941242,0.025045456,0.1375973,-3.80625,28.987501,13.35,watch_1
15277508457485,2.5794628,-9.108279,-1.352543,0.36285368,-0.01527162,0.08994984,-3.80625,28.987501,13.35,watch_1
15277524994412,2.321038,-8.045866,0.42771706,0.36285368,-0.01527162,0.08994984,-3.825,30.112501,13.968751,watch_1
15277513420246,2.321038,-8.045866,0.42771706,0.36285368,-0.01527162,0.08994984,-3.825,30.112501,13.968751,watch_1
15277534994360,2.321038,-8.045866,0.42771706,0.36285368,-0.01527162,0.08994984,-3.24375,28.968752,11.53125,watch_1
15277532494256,1.7659031,-10.6684,-1.9507487,0.36285368,-0.01527162,0.08994984,-3.24375,28.968752,11.53125,watch_1
15277527531496,1.7659031,-10.6684,-1.9507487,-0.09407318,-0.06536253,0.07651082,-3.24375,28.968752,11.53125,watch_1
15277544994308,1.7659031,-10.6684,-1.9507487,-0.09407318,-0.06536253,0.07651082,-4.7625003,29.550001,14.212501,watch_1
15277554994256,1.7659031,-10.6684,-1.9507487,-0.09407318,-0.06536253,0.07651082,-2.8875,29.268751,12.562501,watch_1
15277551567277,2.2971098,-10.955539,-1.3812568,-0.09407318,-0.06536253,0.07651082,-2.8875,29.268751,12.562501,watch_1
15277564994204,2.2971098,-10.955539,-1.3812568,-0.284663,-0.031154104,-0.059101168,-1.725,30.093752,13.63125,watch_1
15277546604517,2.2971098,-10.955539,-1.3812568,-0.284663,-0.031154104,-0.059101168,-1.725,30.093752,13.63125,watch_1
15277574994152,2.2971098,-10.955539,-1.3812568,-0.284663,-0.031154104,-0.059101168,-4.3875003,29.212502,12.543751,watch_1
15277570641235,2.4311078,-9.998409,-1.9938195,0.4178315,0.0018325944,0.039858926,-4.3875003,29.212502,12.543751,watch_1
15277565678475,2.4311078,-9.998409,-1.9938195,0.4178315,0.0018325944,0.039858926,-4.3875003,29.212502,12.543751,watch_1
15277584994100,2.4311078,-9.998409,-1.9938195,0.4178315,0.0018325944,0.039858926,-3.7687502,29.268751,13.33125,watch_1
15277594994048,2.4311078,-9.998409,-1.9938195,0.4178315,0.0018325944,0.039858926,-1.7625,28.218752,15.262501,watch_1
15277584751496,2.6129622,-8.902496,-0.8644072,0.4838049,0.09590577,0.00076358096,-1.7625,28.218752,15.262501,watch_1
15277589714256,2.6129622,-8.902496,-0.8644072,0.4838049,0.09590577,0.00076358096,-1.7625,28.218752,15.262501,watch_1
15277604993996,2.6129622,-8.902496,-0.8644072,0.4838049,0.09590577,0.00076358096,-3.16875,30.7875,12.243751,watch_1
15277614993944,2.6129622,-8.902496,-0.8644072,0.4838049,0.09590577,0.00076358096,-3.9375002,29.118752,13.481251,watch_1
15277603794517,2.4933212,-9.682557,0.3894319,0.3103193,0.09957096,0.039858926,-3.9375002,29.118752,13.481251,watch_1
15277608757277,2.4933212,-9.682557,0.3894319,0.3103193,0.09957096,0.039858926,-3.9375002,29.118752,13.481251,watch_1
15277624993892,2.4933212,-9.682557,0.3894319,0.3103193,0.09957096,0.039858926,-1.66875,30.825,12.843751,watch_1
15277634993840,2.4933212,-9.682557,0.3894319,0.3103193,0.09957096,0.039858926,-3.2250001,30.0375,13.89375,watch_1
15277622868475,2.0961127,-9.476774,0.18364914,0.09040799,0.048258316,0.03497201,-3.2250001,30.0375,13.89375,watch_1
15277627831235,2.0961127,-9.476774,0.18364914,0.09040799,0.048258316,0.03497201,-3.2250001,30.0375,13.89375,watch_1
15277644993787,2.0961127,-9.476774,0.18364914,0.09040799,0.048258316,0.03497201,-2.6625001,31.275002,12.675,watch_1
15277654993735,2.225325,-9.716056,-0.81655073,0.09040799,0.048258316,0.03497201,-3.6375,29.156252,13.06875,watch_1
15277646904256,2.225325,-9.716056,-0.81655073,0.09040799,0.048258316,0.03497201,-3.6375,29.156252,13.06875,watch_1
15277641941496,2.225325,-9.716056,-0.81655073,0.045203995,0.026267186,0.03008509,-3.6375,29.156252,13.06875,watch_1
15277664993683,2.225325,-9.716056,-0.81655073,0.045203995,0.026267186,0.03008509,-4.0687504,29.23125,13.593751,watch_1
15277674993631,2.225325,-9.716056,-0.81655073,0.045203995,0.026267186,0.03008509,-3.24375,30.056252,12.88125,watch_1
15277665978267,3.0293136,-9.223135,-0.47676992,0.08796453,-0.009162972,0.0386372,-3.24375,30.056252,12.88125,watch_1
15277661015506,3.0293136,-9.223135,-0.47676992,0.08796453,-0.009162972,0.0386372,-3.24375,30.056252,12.88125,watch_1
15277684993579,3.0293136,-9.223135,-0.47676992,0.08796453,-0.009162972,0.0386372,-2.1937501,29.8875,14.043751,watch_1
15277694993527,2.713461,-8.85464,-0.232702,0.08796453,-0.009162972,0.0386372,-3.61875,30.73125,12.4875,watch_1
15277685051235,2.713461,-8.85464,-0.232702,0.08796453,-0.009162972,0.0386372,-3.61875,30.73125,12.4875,watch_1
15277680088475,2.713461,-8.85464,-0.232702,0.18203771,0.03970621,0.09850194,-3.61875,30.73125,12.4875,watch_1
15277704993475,2.713461,-8.85464,-0.232702,0.18203771,0.03970621,0.09850194,-3.4875002,30.91875,11.325001,watch_1
15277699162485,2.713461,-8.85464,-0.232702,0.062308207,0.016493348,0.13271037,-3.4875002,30.91875,11.325001,watch_1
15277714993423,2.713461,-8.85464,-0.232702,0.062308207,0.016493348,0.13271037,-1.5562501,30.562502,12.731251,watch_1
15277704125246,2.4789643,-8.672786,0.4229314,0.062308207,0.016493348,0.13271037,-1.5562501,30.562502,12.731251,watch_1
15277724993371,2.4789643,-8.672786,0.4229314,0.062308207,0.016493348,0.13271037,-3.9750001,30.2625,12.4875,watch_1
15277718235506,2.603391,-9.103494,0.657428,-0.047647454,-0.083688475,0.19013166,-3.9750001,30.2625,12.4875,watch_1
15277723198267,2.603391,-9.103494,0.657428,0.062308207,0.016493348,0.13271037,-3.9750001,30.2625,12.4875,watch_1
15277734993319,2.603391,-9.103494,0.657428,-0.047647454,-0.083688475,0.19013166,-4.6125,30.0375,12.3,watch_1
15277744993267,2.603391,-9.103494,0.657428,-0.047647454,-0.083688475,0.19013166,-1.9125,31.3875,12.168751,watch_1
15277742272277,2.469393,-10.850254,-0.78783685,-0.29077163,-0.09957096,0.13881902,-1.9125,31.3875,12.168751,watch_1
15277737309517,2.469393,-10.850254,-0.78783685,-0.29077163,-0.09957096,0.13881902,-4.18125,29.812502,12.356251,watch_1
15277754993215,2.469393,-10.850254,-0.78783685,-0.29077163,-0.09957096,0.13881902,-4.18125,29.812502,12.356251,watch_1
15277764993162,2.469393,-10.850254,-0.78783685,-0.29077163,-0.09957096,0.13881902,-2.90625,28.968752,13.1625,watch_1
15277761345246,2.8522446,-10.807183,-1.8646071,-0.29077163,-0.09957096,0.13881902,-2.90625,28.968752,13.1625,watch_1
15277756382485,2.8522446,-10.807183,-1.8646071,-0.26755878,-0.08002329,0.042302385,-1.6500001,30.825,13.575001,watch_1
15277774993110,2.8522446,-10.807183,-1.8646071,-0.26755878,-0.08002329,0.042302385,-1.6500001,30.825,13.575001,watch_1
15277784993058,2.8522446,-10.807183,-1.8646071,-0.26755878,-0.08002329,0.042302385,-1.35,29.437502,13.743751,watch_1
15277780388267,2.7230322,-9.77827,-0.9936196,-0.26755878,-0.08002329,0.042302385,-1.35,29.437502,13.743751,watch_1
15277775425506,2.7230322,-9.77827,-0.9936196,0.10873393,0.017715078,0.0129808765,-1.35,29.437502,13.743751,watch_1
15277794993006,2.7230322,-9.77827,-0.9936196,0.10873393,0.017715078,0.0129808765,-3.45,30.88125,12.637501,watch_1
15277804992954,2.7230322,-9.77827,-0.9936196,0.10873393,0.017715078,0.0129808765,-3.9375002,29.437502,11.118751,watch_1
15277799462277,2.2636101,-8.974281,-0.68255264,0.10873393,0.017715078,0.0129808765,-3.9375002,29.437502,11.118751,watch_1
15277794499517,2.2636101,-8.974281,-0.68255264,0.037873615,0.07024945,-0.0065667965,-3.61875,29.456251,12.750001,watch_1
15277814992902,2.2636101,-8.974281,-0.68255264,0.037873615,0.07024945,-0.0065667965,-3.61875,29.456251,12.750001,watch_1
15277824992850,2.2636101,-8.974281,-0.68255264,0.037873615,0.07024945,-0.0065667965,-2.325,28.893751,13.5375,watch_1
15277818535246,2.4598217,-9.682557,-0.974477,0.037873615,0.07024945,-0.0065667965,-2.325,28.893751,13.5375,watch_1
15277813572485,2.4598217,-9.682557,-0.974477,-0.25045455,0.048258316,-0.035888307,-2.325,28.893751,13.5375,watch_1
15277834992798,2.4598217,-9.682557,-0.974477,-0.25045455,0.048258316,-0.035888307,-1.03125,29.437502,15.375001,watch_1
15277844992746,2.4598217,-9.682557,-0.974477,-0.25045455,0.048258316,-0.035888307,-1.03125,29.437502,15.375001,watch_1
15277837609256,2.8809586,-9.845269,-1.1946167,-0.25045455,0.048258316,-0.035888307,-1.03125,29.437502,15.375001,watch_1
15277832646496,2.8809586,-9.845269,-1.1946167,-0.21135922,0.04703659,-0.04444041,-1.03125,29.437502,15.375001,watch_1
15277854992694,2.8809586,-9.845269,-1.1946167,-0.21135922,0.04703659,-0.04444041,-3.2625,28.181252,14.962501,watch_1
15277864992642,2.8809586,-9.845269,-1.1946167,-0.21135922,0.04703659,-0.04444041,-2.2125,28.331251,14.043751,watch_1
15277851719517,2.8809586,-9.845269,-1.1946167,-0.021991132,0.03848448,-0.012675445,-2.2125,28.331251,14.043751,watch_1
15277856682277,2.7038896,-9.079565,-0.4528417,-0.021991132,0.03848448,-0.012675445,-2.2125,28.331251,14.043751,watch_1
15277874992590,2.7038896,-9.079565,-0.4528417,-0.021991132,0.03848448,-0.012675445,-1.1812501,29.60625,13.89375,watch_1
15277884992537,2.5268207,-8.959925,0.035294134,-0.15515965,-0.005497783,-0.0065667965,-1.9875001,30.31875,14.606251,watch_1
15277870793475,2.5268207,-8.959925,0.035294134,-0.15515965,-0.005497783,-0.0065667965,-1.9875001,30.31875,14.606251,watch_1
15277875756235,2.5268207,-8.959925,0.035294134,-0.15515965,-0.005497783,-0.0065667965,-1.9875001,30.31875,14.606251,watch_1
15277894992485,2.5268207,-8.959925,0.035294134,-0.15515965,-0.005497783,-0.0065667965,-4.2000003,27.937502,14.00625,watch_1
15277894829256,2.8187451,-9.677772,-0.91226363,-0.39950556,-0.058032155,-0.02611447,-4.2000003,27.937502,14.00625,watch_1
15277889866496,2.8187451,-9.677772,-0.91226363,-0.39950556,-0.058032155,-0.02611447,-4.2000003,27.937502,14.00625,watch_1
15277904992433,2.8187451,-9.677772,-0.91226363,-0.39950556,-0.058032155,-0.02611447,-3.35625,28.725,15.31875,watch_1
15277914992381,2.8187451,-9.677772,-0.91226363,-0.39950556,-0.058032155,-0.02611447,-3.7125,28.425001,13.856251,watch_1
15277913903267,2.5555346,-10.189836,-1.2999009,-0.39950556,-0.058032155,-0.02611447,-3.7125,28.425001,13.856251,watch_1
15277908940506,2.5555346,-10.189836,-1.2999009,-0.47647452,-0.017715078,-0.059101168,-3.1875002,29.212502,13.556251,watch_1
15277924992329,2.5555346,-10.189836,-1.2999009,-0.47647452,-0.017715078,-0.059101168,-3.1875002,29.212502,13.556251,watch_1
15277934992277,2.5555346,-10.189836,-1.2999009,-0.47647452,-0.017715078,-0.059101168,-3.8812501,29.362501,14.75625,watch_1
15277932976235,2.713461,-10.07498,-0.8356933,-0.47647452,-0.017715078,-0.059101168,-3.8812501,29.362501,14.75625,watch_1
15277928013475,2.713461,-10.07498,-0.8356933,-0.4178315,-0.060475614,-0.07620538,-3.8812501,29.362501,14.75625,watch_1
15277944992225,2.713461,-10.07498,-0.8356933,-0.4178315,-0.060475614,-0.07620538,-2.8875,28.931252,14.625001,watch_1
15277954992173,2.713461,-10.07498,-0.8356933,-0.4178315,-0.060475614,-0.07620538,-2.8875,28.931252,14.625001,watch_1
15277952050246,3.129812,-9.59163,-1.7736797,-0.4178315,-0.060475614,-0.07620538,-2.8875,28.931252,14.625001,watch_1
15277947087485,3.129812,-9.59163,-1.7736797,-0.47647452,-0.018936807,-0.16661337,-2.8875,28.931252,14.625001,watch_1
15277964992121,3.129812,-9.59163,-1.7736797,-0.47647452,-0.018936807,-0.16661337,-3.075,29.8875,15.093751,watch_1
15277974992069,3.129812,-9.59163,-1.7736797,-0.47647452,-0.018936807,-0.16661337,-2.6437502,29.831251,14.418751,watch_1
15277966130506,2.6991038,-8.88814,-2.376671,-0.32253662,0.091018856,-0.13729186,-2.6437502,29.831251,14.418751,watch_1
15277971093267,2.6991038,-8.88814,-2.376671,-0.32253662,0.091018856,-0.13729186,-2.6437502,29.831251,14.418751,watch_1
15277984992017,2.6991038,-8.88814,-2.376671,-0.32253662,0.091018856,-0.13729186,-2.49375,29.531252,15.918751,watch_1
15277994991965,2.6991038,-8.88814,-2.376671,-0.32253662,0.091018856,-0.13729186,-3.6937501,29.98125,13.856251,watch_1
15277985203475,2.8905299,-8.945567,-1.2664014,-0.2858847,0.13377939,-0.06520981,-3.6937501,29.98125,13.856251,watch_1
15277990166235,2.8905299,-8.945567,-1.2664014,-0.2858847,0.13377939,-0.06520981,-3.6937501,29.98125,13.856251,watch_1
15278004991912,2.8905299,-8.945567,-1.2664014,-0.2858847,0.13377939,-0.06520981,-3.3000002,29.306252,14.400001,watch_1
15278014991860,2.8905299,-8.945567,-1.2664014,-0.2858847,0.13377939,-0.06520981,-4.93125,27.806252,15.675,watch_1
15278009240246,3.522235,-9.170493,-0.8883354,-0.2858847,0.13377939,-0.06520981,-4.93125,27.806252,15.675,watch_1
15278004277485,3.522235,-9.170493,-0.8883354,-0.5033526,0.13500112,-0.041996952,-2.5500002,29.268751,14.64375,watch_1
15278024991808,3.522235,-9.170493,-0.8883354,-0.5033526,0.13500112,-0.041996952,-2.5500002,29.268751,14.64375,watch_1
15278034991756,3.522235,-9.170493,-0.8883354,-0.5033526,0.13500112,-0.041996952,-3.9375002,29.1,13.762501,watch_1
15278028313267,2.8426733,-9.773484,-1.6588243,-0.5033526,0.13500112,-0.041996952,-3.9375002,29.1,13.762501,watch_1
15278044991704,2.8426733,-9.773484,-1.6588243,-0.62796897,0.21563527,-0.057879437,-4.03125,29.19375,15.637501,watch_1
15278023350506,2.8426733,-9.773484,-1.6588243,-0.62796897,0.21563527,-0.057879437,-4.03125,29.19375,15.637501,watch_1
15278054991652,2.8426733,-9.773484,-1.6588243,-0.62796897,0.21563527,-0.057879437,-4.40625,28.575,15.95625,watch_1
15278047387277,2.5459633,-9.926624,-1.2329018,-0.62796897,0.21563527,-0.057879437,-4.40625,28.575,15.95625,watch_1
15278042424517,2.5459633,-9.926624,-1.2329018,-0.7024945,0.19975278,-0.085979216,-4.40625,28.575,15.95625,watch_1
15278064991600,2.5459633,-9.926624,-1.2329018,-0.7024945,0.19975278,-0.085979216,-4.6687503,28.987501,15.000001,watch_1
15278074991548,2.5459633,-9.926624,-1.2329018,-0.7024945,0.19975278,-0.085979216,-3.3187501,28.687502,16.78125,watch_1
15278066460246,2.78046,-9.395418,-0.974477,-0.59742576,0.1472184,-0.07864884,-3.3187501,28.687502,16.78125,watch_1
15278061497485,2.78046,-9.395418,-0.974477,-0.59742576,0.1472184,-0.07864884,-3.3187501,28.687502,16.78125,watch_1
15278084991496,2.78046,-9.395418,-0.974477,-0.59742576,0.1472184,-0.07864884,-4.9500003,28.9125,16.725,watch_1
15278094991444,3.2542388,-8.883354,-1.4578272,-0.4838049,0.10567961,-0.033444848,-4.14375,28.1625,16.3125,watch_1
15278085534256,3.2542388,-8.883354,-1.4578272,-0.4838049,0.10567961,-0.033444848,-4.14375,28.1625,16.3125,watch_1
15278080571496,3.2542388,-8.883354,-1.4578272,-0.4838049,0.10567961,-0.033444848,-4.14375,28.1625,16.3125,watch_1
15278104991392,3.2542388,-8.883354,-1.4578272,-0.4838049,0.10567961,-0.033444848,-4.125,29.737501,15.712501,watch_1
15278104607277,3.5270207,-9.022138,-2.3623142,-0.6976076,0.1472184,-0.061544627,-4.125,29.737501,15.712501,watch_1
15278099644517,3.5270207,-9.022138,-2.3623142,-0.6976076,0.1472184,-0.061544627,-4.125,29.737501,15.712501,watch_1
15278124991287,3.5270207,-9.022138,-2.3623142,-0.6976076,0.1472184,-0.061544627,-3.7500002,28.593752,18.337502,watch_1
15278114991340,3.5270207,-9.022138,-2.3623142,-0.6976076,0.1472184,-0.061544627,-2.68125,28.725,18.88125,watch_1
15278123680246,2.914458,-9.735199,-2.7308087,-0.9101885,0.23396121,-0.10674862,-3.7500002,28.593752,18.337502,watch_1
15278118717485,2.914458,-9.735199,-2.7308087,-0.9101885,0.23396121,-0.10674862,-3.9750001,27.993752,18.525002,watch_1
15278134991235,2.914458,-9.735199,-2.7308087,-0.9101885,0.23396121,-0.10674862,-3.9750001,27.993752,18.525002,watch_1
15278144991183,2.914458,-9.735199,-2.7308087,-0.9101885,0.23396121,-0.10674862,-4.6687503,29.75625,18.5625,watch_1
15278137760506,2.914458,-9.735199,-2.7308087,-0.957836,0.2498437,-0.12018765,-4.6687503,29.75625,18.5625,watch_1
15278142723267,2.6225336,-9.7399845,-2.5154548,-0.957836,0.2498437,-0.12018765,-4.03125,25.85625,19.59375,watch_1
15278154991131,2.6225336,-9.7399845,-2.5154548,-0.957836,0.2498437,-0.12018765,-4.03125,25.85625,19.59375,watch_1
15278164991079,2.6225336,-9.7399845,-2.5154548,-0.957836,0.2498437,-0.12018765,-6.39375,27.69375,18.28125,watch_1
15278161797277,2.7613173,-9.055637,-1.9555343,-0.957836,0.2498437,-0.12018765,-6.39375,27.69375,18.28125,watch_1
15278174991027,2.7613173,-9.055637,-1.9555343,-0.9346231,0.23518294,-0.123852834,-5.025,27.88125,18.13125,watch_1
15278156834517,2.7613173,-9.055637,-1.9555343,-0.9346231,0.23518294,-0.123852834,-5.025,27.88125,18.13125,watch_1
15278184990975,2.7613173,-9.055637,-1.9555343,-0.9346231,0.23518294,-0.123852834,-4.6312504,25.7625,19.96875,watch_1
15278175907485,3.306881,-8.711071,-2.376671,-1.0677916,0.21074834,-0.10919208,-4.6312504,25.7625,19.96875,watch_1
15278180870246,3.306881,-8.711071,-2.376671,-1.0677916,0.21074834,-0.10919208,-4.6312504,25.7625,19.96875,watch_1
15278194990923,3.306881,-8.711071,-2.376671,-1.0677916,0.21074834,-0.10919208,-5.1937504,27.69375,18.69375,watch_1
15278204990871,3.306881,-8.711071,-2.376671,-1.0677916,0.21074834,-0.10919208,-5.5125003,26.081251,19.25625,watch_1
15278194981496,3.5270207,-9.012567,-2.242673,-1.2449424,0.24862197,-0.09575305,-5.5125003,26.081251,19.25625,watch_1
15278199944256,3.5270207,-9.012567,-2.242673,-1.2449424,0.24862197,-0.09575305,-5.5125003,26.081251,19.25625,watch_1
15278214990819,3.5270207,-9.012567,-2.242673,-1.2449424,0.24862197,-0.09575305,-4.70625,25.050001,20.04375,watch_1
15278224990767,3.5270207,-9.012567,-2.242673,-1.2449424,0.24862197,-0.09575305,-4.51875,26.75625,20.175001,watch_1
15278219017277,2.091327,-8.237292,-4.2047877,-1.2669336,0.34269515,-0.027336199,-4.51875,26.75625,20.175001,watch_1
15278214054517,2.091327,-8.237292,-4.2047877,-1.2669336,0.34269515,-0.027336199,-4.51875,26.75625,20.175001,watch_1
15278234990715,2.091327,-8.237292,-4.2047877,-1.2669336,0.34269515,-0.027336199,-4.0125003,25.81875,20.625,watch_1
15278244990662,2.091327,-8.237292,-4.2047877,-1.2669336,0.34269515,-0.027336199,-5.2312503,25.500002,21.675001,watch_1
15278238091235,1.2059826,-9.266206,-2.864807,-1.0384701,0.33414304,-0.0151189035,-5.2312503,25.500002,21.675001,watch_1
15278233128475,1.2059826,-9.266206,-2.864807,-1.0384701,0.33414304,-0.0151189035,-5.2312503,25.500002,21.675001,watch_1
15278254990610,1.2059826,-9.266206,-2.864807,-1.0384701,0.33414304,-0.0151189035,-4.40625,26.175001,21.4125,watch_1
15278257164256,2.4454648,-9.634701,-3.1136606,-1.0384701,0.33414304,-0.0151189035,-5.30625,23.212502,22.7625,watch_1
15278264990558,2.4454648,-9.634701,-3.1136606,-1.0384701,0.33414304,-0.0151189035,-5.30625,23.212502,22.7625,watch_1
15278252201496,2.4454648,-9.634701,-3.1136606,-1.0311397,0.20097451,0.021532983,-6.76875,23.56875,23.1375,watch_1
15278274990506,2.4454648,-9.634701,-3.1136606,-1.0311397,0.20097451,0.021532983,-6.76875,23.56875,23.1375,watch_1
15278284990454,2.4454648,-9.634701,-3.1136606,-1.0311397,0.20097451,0.021532983,-5.15625,23.0625,23.962502,watch_1
15278276238267,2.603391,-9.223135,-3.63051,-0.84054995,0.2131918,0.025198173,-5.15625,23.0625,23.962502,watch_1
15278271275506,2.603391,-9.223135,-3.63051,-0.84054995,0.2131918,0.025198173,-5.15625,23.0625,23.962502,watch_1
15278294990402,2.603391,-9.223135,-3.63051,-0.84054995,0.2131918,0.025198173,-4.18125,24.056252,22.81875,watch_1
15278304990350,2.603391,-9.223135,-3.63051,-0.84054995,0.2131918,0.025198173,-5.55,23.8875,22.3875,watch_1
15278295311235,2.158326,-8.309076,-3.5730824,-0.84054995,0.2131918,0.025198173,-5.55,23.8875,22.3875,watch_1
15278290348475,2.158326,-8.309076,-3.5730824,-0.64751667,0.21930045,0.10216714,-5.55,23.8875,22.3875,watch_1
15278314990298,2.158326,-8.309076,-3.5730824,-0.64751667,0.21930045,0.10216714,-6.3562503,24.956251,21.018751,watch_1
15278314385246,1.253839,-8.873783,-3.3242288,-0.64751667,0.21930045,0.10216714,-6.3562503,24.956251,21.018751,watch_1
15278324990246,1.253839,-8.873783,-3.3242288,-0.4996874,0.2046397,0.09850194,-4.8375,23.25,23.831251,watch_1
15278309422485,1.253839,-8.873783,-3.3242288,-0.4996874,0.2046397,0.09850194,-4.8375,23.25,23.831251,watch_1
15278334990194,1.253839,-8.873783,-3.3242288,-0.4996874,0.2046397,0.09850194,-6.6562505,24.6,22.612501,watch_1
15278328465506,1.253839,-8.873783,-3.3242288,-0.3274235,0.1386663,0.081397735,-6.6562505,24.6,22.612501,watch_1
15278333428267,1.2873386,-9.543773,-4.008576,-0.3274235,0.1386663,0.081397735,-4.0125003,24.243752,21.9375,watch_1
15278344990142,1.2873386,-9.543773,-4.008576,-0.3274235,0.1386663,0.081397735,-4.0125003,24.243752,21.9375,watch_1
15278354990090,1.2873386,-9.543773,-4.008576,-0.3274235,0.1386663,0.081397735,-5.55,23.8875,22.3875,watch_1
15278347538475,1.2873386,-9.543773,-4.008576,0.036651887,0.07147118,0.11438443,-5.55,23.8875,22.3875,watch_1
15278352501235,1.9381863,-9.26142,-4.44407,0.036651887,0.07147118,0.11438443,-5.55,23.8875,22.3875,watch_1
15278364990037,1.9381863,-9.26142,-4.44407,0.036651887,0.07147118,0.11438443,-4.40625,25.85625,23.475,watch_1
15278374989985,1.9381863,-9.26142,-4.44407,0.036651887,0.07147118,0.11438443,-6.0750003,24.69375,21.65625,watch_1
15278366612485,2.9048867,-9.452846,-4.2335014,0.39828384,0.020158539,0.1583667,-6.0750003,24.69375,21.65625,watch_1
15278371575246,2.9048867,-9.452846,-4.2335014,0.39828384,0.020158539,0.1583667,-6.0750003,24.69375,21.65625,watch_1
15278384989933,2.9048867,-9.452846,-4.2335014,0.39828384,0.020158539,0.1583667,-4.1625004,24.056252,23.53125,watch_1
15278394989881,2.9048867,-9.452846,-4.2335014,0.39828384,0.020158539,0.1583667,-3.45,25.312502,21.900002,watch_1
15278390648267,2.8187451,-10.55833,-3.44387,0.39828384,0.020158539,0.1583667,-3.45,25.312502,21.900002,watch_1
15278385685506,2.8187451,-10.55833,-3.44387,0.38240135,0.031154104,0.08628465,-4.1062503,24.7875,22.0125,watch_1
15278404989829,2.8187451,-10.55833,-3.44387,0.38240135,0.031154104,0.08628465,-4.1062503,24.7875,22.0125,watch_1
15278414989777,2.8187451,-10.55833,-3.44387,0.38240135,0.031154104,0.08628465,-4.2937503,24.16875,23.6625,watch_1
15278404759517,2.8187451,-10.55833,-3.44387,0.16249003,-0.03604102,-0.10430516,-4.2937503,24.16875,23.6625,watch_1
15278424989725,2.8139594,-9.687343,-2.4197419,0.16249003,-0.03604102,-0.10430516,-6.2625003,22.650002,23.2875,watch_1
15278409722277,2.8139594,-9.687343,-2.4197419,0.16249003,-0.03604102,-0.10430516,-6.2625003,22.650002,23.2875,watch_1
15278434989673,2.8139594,-9.687343,-2.4197419,0.16249003,-0.03604102,-0.10430516,-4.05,23.625,24.0375,watch_1
