# Session ID: 20250816_094347
# Start Time: 1755330227705
# Device ID: watch_1
# Sample Count: 2266
# Generated by Watch IMU Recorder
timestamp,accel_x,accel_y,accel_z,gyro_x,gyro_y,gyro_z,mag_x,mag_y,mag_z,watch_name
15288612314673,2.8474588,-8.2660055,4.868796,0.3103193,-0.14355323,0.15714496,-0.93750006,27.150002,17.643751,watch_1
15288631401235,2.8474588,-8.2660055,4.868796,0.3103193,-0.14355323,0.15714496,-0.93750006,27.150002,17.643751,watch_1
15288574174360,2.8474588,-8.2660055,4.868796,0.3103193,-0.14355323,0.15714496,-0.93750006,27.150002,17.643751,watch_1
15288555104204,2.8474588,-8.2660055,4.868796,0.3103193,-0.14355323,0.15714496,-0.93750006,27.150002,17.643751,watch_1
15288650475246,2.7469604,-8.189436,4.811368,0.3103193,-0.14355323,0.15714496,-0.93750006,27.150002,17.643751,watch_1
15288669548267,2.7565317,-8.151151,4.8448677,0.3103193,-0.14355323,0.15714496,-0.93750006,27.150002,17.643751,watch_1
15288688622277,2.7756743,-8.242078,4.854439,0.3103193,-0.14355323,0.15714496,-0.93750006,27.150002,17.643751,watch_1
15288683659517,2.7756743,-8.242078,4.854439,0.015882485,0.023823727,-0.017562363,-0.93750006,27.150002,17.643751,watch_1
15288715481756,2.7756743,-8.242078,4.854439,0.015882485,0.023823727,-0.017562363,-2.9437501,29.437502,-7.6687503,watch_1
15288707665246,2.6991038,-8.2660055,4.78744,0.0097738365,0.029932374,-0.027336199,-2.9437501,29.437502,-7.6687503,watch_1
15288702702485,2.6991038,-8.2660055,4.78744,0.0097738365,0.029932374,-0.027336199,-2.9437501,29.437502,-7.6687503,watch_1
15288725481704,2.6991038,-8.2660055,4.78744,0.0097738365,0.029932374,-0.027336199,-2.49375,30.91875,-7.89375,watch_1
15288735481652,2.6991038,-8.2660055,4.78744,0.0097738365,0.029932374,-0.027336199,-1.1437501,27.768751,-5.4,watch_1
15288726738267,2.6368906,-8.22772,4.7491546,0.0097738365,0.029932374,-0.027336199,-1.1437501,27.768751,-5.4,watch_1
15288721775506,2.6368906,-8.22772,4.7491546,0.02687805,0.025045456,-0.02611447,-1.1437501,27.768751,-5.4,watch_1
15288745481600,2.6368906,-8.22772,4.7491546,0.02687805,0.025045456,-0.02611447,-3.3937502,27.937502,-6.5437503,watch_1
15288755481548,2.6368906,-8.22772,4.7491546,0.02687805,0.025045456,-0.02611447,-3.5062501,29.94375,-8.493751,watch_1
15288740849517,2.6368906,-8.22772,4.7491546,0.041538805,0.011606431,-0.02367101,-3.5062501,29.94375,-8.493751,watch_1
15288745812277,2.713461,-8.069795,4.8735814,0.041538805,0.011606431,-0.02367101,-3.5062501,29.94375,-8.493751,watch_1
15288765481496,2.713461,-8.069795,4.8735814,0.041538805,0.011606431,-0.02367101,-2.4562502,31.368752,-8.962501,watch_1
15288775481444,2.7086751,-7.969296,4.9118667,0.0061086477,0.011606431,-0.0029016077,-2.2687502,30.73125,-10.9125,watch_1
15288759922485,2.7086751,-7.969296,4.9118667,0.0061086477,0.011606431,-0.0029016077,-2.2687502,30.73125,-10.9125,watch_1
15288764885246,2.7086751,-7.969296,4.9118667,0.0061086477,0.011606431,-0.0029016077,-2.2687502,30.73125,-10.9125,watch_1
15288785481392,2.7086751,-7.969296,4.9118667,0.0061086477,0.011606431,-0.0029016077,-2.8312502,32.34375,-10.837501,watch_1
15288783959256,2.6895328,-8.07458,4.8448677,0.0061086477,0.011606431,-0.0029016077,-2.8312502,32.34375,-10.837501,watch_1
15288778996496,2.6895328,-8.07458,4.8448677,-0.05253437,0.007941242,0.011759147,-2.8312502,32.34375,-10.837501,watch_1
15288795481340,2.6895328,-8.07458,4.8448677,-0.05253437,0.007941242,0.011759147,-3.2625,30.825,-8.700001,watch_1
15288805481287,2.6895328,-8.07458,4.8448677,-0.05253437,0.007941242,0.011759147,-0.76875,29.025002,-8.1,watch_1
15288803032277,2.7326035,-8.333005,4.7826543,-0.073303774,0.0067195124,0.025198173,-3.0,32.15625,-9.975,watch_1
15288798069517,2.7326035,-8.333005,4.7826543,-0.073303774,0.0067195124,0.025198173,-3.0,32.15625,-9.975,watch_1
15288815481235,2.7326035,-8.333005,4.7826543,-0.073303774,0.0067195124,0.025198173,-3.0,32.15625,-9.975,watch_1
15288825481183,2.7326035,-8.333005,4.7826543,-0.073303774,0.0067195124,0.025198173,-2.04375,31.29375,-9.76875,watch_1
15288817143475,2.7613173,-8.500503,4.8448677,-0.043982264,0.005497783,0.016646065,-2.04375,31.29375,-9.76875,watch_1
15288822106235,2.7613173,-8.500503,4.8448677,-0.073303774,0.0067195124,0.025198173,-2.04375,31.29375,-9.76875,watch_1
15288835481131,2.7613173,-8.500503,4.8448677,-0.043982264,0.005497783,0.016646065,-3.2812502,30.843752,-9.28125,watch_1
15288845481079,2.7613173,-8.500503,4.8448677,-0.043982264,0.005497783,0.016646065,-3.3375,31.368752,-7.89375,watch_1
15288841179256,2.7948167,-8.423932,4.9549375,-0.043982264,0.005497783,0.016646065,-3.3375,31.368752,-7.89375,watch_1
15288836216496,2.7948167,-8.423932,4.9549375,0.0024434591,0.0067195124,0.0044287695,-3.3375,31.368752,-7.89375,watch_1
15288855481027,2.7948167,-8.423932,4.9549375,0.0024434591,0.0067195124,0.0044287695,-2.5687501,28.44375,-5.775,watch_1
15288865480975,2.7948167,-8.423932,4.9549375,0.0024434591,0.0067195124,0.0044287695,-2.5125,30.937502,-9.20625,watch_1
15288860253267,2.804388,-8.242078,4.988437,0.0024434591,0.0067195124,0.0044287695,-2.5125,30.937502,-9.20625,watch_1
15288855290506,2.804388,-8.242078,4.988437,0.0012217296,0.017715078,-0.018784093,-2.5125,30.937502,-9.20625,watch_1
15288875480923,2.804388,-8.242078,4.988437,0.0012217296,0.017715078,-0.018784093,-2.9250002,32.71875,-9.28125,watch_1
15288885480871,2.804388,-8.242078,4.988437,0.0012217296,0.017715078,-0.018784093,-3.1125002,31.1625,-10.462501,watch_1
15288879326235,2.713461,-8.280363,4.9310093,-0.018325943,0.020158539,-0.02489274,-3.1125002,31.1625,-10.462501,watch_1
15288874363475,2.713461,-8.280363,4.9310093,-0.018325943,0.020158539,-0.02489274,-3.1125002,31.1625,-10.462501,watch_1
15288895480819,2.713461,-8.280363,4.9310093,-0.018325943,0.020158539,-0.02489274,-3.91875,30.31875,-8.868751,watch_1
15288905480767,2.713461,-8.280363,4.9310093,-0.018325943,0.020158539,-0.02489274,-3.1125002,31.1625,-10.181251,watch_1
15288893406496,2.713461,-8.280363,4.9310093,0.015882485,0.021380268,-0.028557928,-3.1125002,31.1625,-10.181251,watch_1
15288898369256,2.6943183,-8.175078,4.9692945,0.015882485,0.021380268,-0.028557928,-3.1125002,31.1625,-10.181251,watch_1
15288915480715,2.6943183,-8.175078,4.9692945,0.015882485,0.021380268,-0.028557928,-3.9375002,33.35625,-11.793751,watch_1
15288925480662,2.6943183,-8.175078,4.9692945,0.015882485,0.021380268,-0.028557928,-3.8437502,31.050001,-9.525001,watch_1
15288912480506,2.6991038,-7.978867,5.041079,0.05131264,0.025045456,-0.021227552,-3.8437502,31.050001,-9.525001,watch_1
15288917443267,2.6991038,-7.978867,5.041079,0.05131264,0.025045456,-0.021227552,-3.8437502,31.050001,-9.525001,watch_1
15288935480610,2.6991038,-7.978867,5.041079,0.05131264,0.025045456,-0.021227552,-3.43125,32.568752,-11.94375,watch_1
15288945480558,2.6991038,-7.978867,5.041079,0.05131264,0.025045456,-0.021227552,-3.54375,31.575,-12.150001,watch_1
15288936516235,2.7038896,-7.9070826,4.983651,0.05131264,0.025045456,-0.021227552,-3.54375,31.575,-12.150001,watch_1
15288931553475,2.7038896,-7.9070826,4.983651,0.0024434591,0.026267186,-0.016340632,-3.54375,31.575,-12.150001,watch_1
15288955480506,2.7038896,-7.9070826,4.983651,0.0024434591,0.026267186,-0.016340632,-3.1875002,33.131252,-10.087501,watch_1
15288965480454,2.7038896,-7.9070826,4.983651,0.0024434591,0.026267186,-0.016340632,-2.9625,32.456253,-10.575001,watch_1
15288955590246,2.6895328,-8.079366,4.892724,0.0024434591,0.026267186,-0.016340632,-2.9625,32.456253,-10.575001,watch_1
15288950627485,2.6895328,-8.079366,4.892724,-0.041538805,0.017715078,0.0019853106,-2.9625,32.456253,-10.575001,watch_1
15288975480402,2.6895328,-8.079366,4.892724,-0.041538805,0.017715078,0.0019853106,-3.3937502,32.850002,-11.53125,watch_1
15288974663267,2.6799614,-8.2660055,4.9405804,-0.041538805,0.017715078,0.0019853106,-3.3937502,32.850002,-11.53125,watch_1
15288969700506,2.6799614,-8.2660055,4.9405804,-0.02687805,0.020158539,0.014202606,-3.3937502,32.850002,-11.53125,watch_1
15288985480350,2.6799614,-8.2660055,4.9405804,-0.02687805,0.020158539,0.014202606,-2.325,32.98125,-11.137501,watch_1
15288995480298,2.6799614,-8.2660055,4.9405804,-0.02687805,0.020158539,0.014202606,-3.80625,33.225002,-11.625,watch_1
15288988774517,2.7086751,-8.37129,5.0219364,-0.0012217296,0.028710645,0.009315688,-3.80625,33.225002,-11.625,watch_1
15288993737277,2.7086751,-8.37129,5.0219364,-0.0012217296,0.028710645,0.009315688,-3.80625,33.225002,-11.625,watch_1
15289005480246,2.7086751,-8.37129,5.0219364,-0.0012217296,0.028710645,0.009315688,-3.8812501,31.087502,-11.26875,watch_1
15289015480194,2.7086751,-8.37129,5.0219364,-0.0012217296,0.028710645,0.009315688,-3.8812501,31.087502,-11.26875,watch_1
15289012810246,2.6991038,-8.37129,4.9980083,-0.0012217296,0.028710645,0.009315688,-3.8812501,31.087502,-11.26875,watch_1
15289007847485,2.6991038,-8.37129,4.9980083,-0.0061086477,0.033597562,-0.005345067,-3.8812501,31.087502,-11.26875,watch_1
15289025480142,2.6991038,-8.37129,4.9980083,-0.0061086477,0.033597562,-0.005345067,-3.45,32.268753,-10.89375,watch_1
15289035480090,2.6991038,-8.37129,4.9980083,-0.0061086477,0.033597562,-0.005345067,-5.2312503,30.900002,-10.387501,watch_1
15289031884256,2.7182465,-8.323434,4.9310093,-0.0061086477,0.033597562,-0.005345067,-5.2312503,30.900002,-10.387501,watch_1
15289026921496,2.7182465,-8.323434,4.9310093,-0.008552107,0.029932374,-0.0151189035,-2.98125,30.900002,-10.275001,watch_1
15289045480037,2.7182465,-8.323434,4.9310093,-0.008552107,0.029932374,-0.0151189035,-2.98125,30.900002,-10.275001,watch_1
15289055479985,2.7182465,-8.323434,4.9310093,-0.008552107,0.029932374,-0.0151189035,-2.4375,31.987501,-11.34375,watch_1
15289045994517,2.7421749,-8.208578,4.9453664,0.017104214,0.029932374,-0.017562363,-2.4375,31.987501,-11.34375,watch_1
15289050957277,2.7421749,-8.208578,4.9453664,0.017104214,0.029932374,-0.017562363,-2.4375,31.987501,-11.34375,watch_1
15289065479933,2.7421749,-8.208578,4.9453664,0.017104214,0.029932374,-0.017562363,-3.525,34.40625,-12.281251,watch_1
15289075479881,2.7421749,-8.208578,4.9453664,0.017104214,0.029932374,-0.017562363,-5.08125,32.49375,-11.55,watch_1
15289070031235,2.7038896,-8.132008,4.9788656,0.03176497,0.034819294,-0.018784093,-5.08125,32.49375,-11.55,watch_1
15289065068475,2.7038896,-8.132008,4.9788656,0.03176497,0.034819294,-0.018784093,-5.08125,32.49375,-11.55,watch_1
15289085479829,2.7038896,-8.132008,4.9788656,0.03176497,0.034819294,-0.018784093,-3.54375,31.575,-12.450001,watch_1
15289095479777,2.7038896,-8.132008,4.9788656,0.03176497,0.034819294,-0.018784093,-3.8812501,32.5125,-11.26875,watch_1
15289089074256,2.6799614,-8.160722,4.9788656,0.03176497,0.034819294,-0.018784093,-3.8812501,32.5125,-11.26875,watch_1
15289084111496,2.6799614,-8.160722,4.9788656,0.017104214,0.03604102,-0.020005822,-3.8812501,32.5125,-11.26875,watch_1
15289105479725,2.6799614,-8.160722,4.9788656,0.017104214,0.03604102,-0.020005822,-3.8625002,32.8125,-12.6,watch_1
15289115479673,2.6799614,-8.160722,4.9788656,0.017104214,0.03604102,-0.020005822,-3.54375,31.575,-11.868751,watch_1
15289108147277,2.6895328,-8.280363,4.9788656,0.017104214,0.03604102,-0.020005822,-3.54375,31.575,-11.868751,watch_1
15289103184517,2.6895328,-8.280363,4.9788656,0.0073303776,0.031154104,-0.017562363,-3.54375,31.575,-11.868751,watch_1
15289125479621,2.6895328,-8.280363,4.9788656,0.0073303776,0.031154104,-0.017562363,-5.08125,32.5125,-12.281251,watch_1
15289135479569,2.6895328,-8.280363,4.9788656,0.0073303776,0.031154104,-0.017562363,-4.4625,31.312502,-11.64375,watch_1
15289127221235,2.7278178,-8.251649,4.97408,0.0073303776,0.031154104,-0.017562363,-4.4625,31.312502,-11.64375,watch_1
15289122258475,2.7278178,-8.251649,4.97408,0.010995566,0.031154104,-0.02489274,-4.4625,31.312502,-11.64375,watch_1
15289145479517,2.7278178,-8.251649,4.97408,0.010995566,0.031154104,-0.02489274,-4.2000003,32.175003,-11.26875,watch_1
15289155479465,2.7182465,-8.155936,4.988437,0.02565632,0.032375835,-0.02611447,-3.45,32.268753,-11.19375,watch_1
15289146294256,2.7182465,-8.155936,4.988437,0.02565632,0.032375835,-0.02611447,-3.45,32.268753,-11.19375,watch_1
15289141331496,2.7182465,-8.155936,4.988437,0.02565632,0.032375835,-0.02611447,-3.45,32.268753,-11.19375,watch_1
15289165479412,2.7182465,-8.155936,4.988437,0.02565632,0.032375835,-0.02611447,-3.0,32.193752,-10.9875,watch_1
15289175479360,2.6991038,-8.151151,4.9692945,0.015882485,0.029932374,-0.02611447,-5.1000004,31.875002,-9.450001,watch_1
15289165368267,2.6991038,-8.151151,4.9692945,0.015882485,0.029932374,-0.02611447,-5.1000004,31.875002,-9.450001,watch_1
15289160405506,2.6991038,-8.151151,4.9692945,0.015882485,0.029932374,-0.02611447,-5.1000004,31.875002,-9.450001,watch_1
15289185479308,2.6991038,-8.151151,4.9692945,0.015882485,0.029932374,-0.02611447,-3.80625,33.54375,-13.387501,watch_1
15289184441235,2.6895328,-8.184649,4.950152,0.012217295,0.029932374,-0.022449281,-3.80625,33.54375,-13.387501,watch_1
15289179478475,2.6895328,-8.184649,4.950152,0.012217295,0.029932374,-0.022449281,-3.80625,33.54375,-13.387501,watch_1
15289195479256,2.6895328,-8.184649,4.950152,0.012217295,0.029932374,-0.022449281,-4.2000003,32.49375,-12.6,watch_1
15289205479204,2.6895328,-8.184649,4.950152,0.012217295,0.029932374,-0.022449281,-4.2000003,32.49375,-12.6,watch_1
15289203514256,2.656033,-8.151151,5.00758,0.012217295,0.029932374,-0.022449281,-4.2000003,32.49375,-12.6,watch_1
15289198551496,2.656033,-8.151151,5.00758,0.03054324,0.032375835,-0.022449281,-4.2000003,32.49375,-12.6,watch_1
15289215479152,2.656033,-8.151151,5.00758,0.03054324,0.032375835,-0.022449281,-5.0437503,31.66875,-12.618751,watch_1
15289225479100,2.656033,-8.151151,5.00758,0.03054324,0.032375835,-0.022449281,-3.80625,33.24375,-12.056251,watch_1
15289222588267,2.656033,-8.060223,5.1272206,0.02932151,0.03604102,-0.021227552,-3.80625,33.24375,-12.056251,watch_1
15289217625506,2.656033,-8.060223,5.1272206,0.02932151,0.03604102,-0.021227552,-3.80625,33.24375,-12.056251,watch_1
15289235479048,2.656033,-8.060223,5.1272206,0.02932151,0.03604102,-0.021227552,-4.9125004,32.68125,-12.4125,watch_1
15289245478996,2.656033,-8.060223,5.1272206,0.02932151,0.03604102,-0.021227552,-3.8625002,32.49375,-10.96875,watch_1
15289236698475,2.6321049,-8.060223,5.151149,-0.020769402,0.03848448,-0.02611447,-3.8625002,32.49375,-10.96875,watch_1
15289241661235,2.6321049,-8.060223,5.151149,-0.020769402,0.03848448,-0.02611447,-3.8625002,32.49375,-10.96875,watch_1
15289255478944,2.6321049,-8.060223,5.151149,-0.020769402,0.03848448,-0.02611447,-3.15,32.30625,-10.875,watch_1
15289265478892,2.6321049,-8.060223,5.151149,-0.020769402,0.03848448,-0.02611447,-4.5750003,31.725,-12.0,watch_1
15289260704256,2.6416762,-8.175078,5.0362935,-0.06475167,0.026267186,-0.02611447,-4.5750003,31.725,-12.0,watch_1
15289255741496,2.6416762,-8.175078,5.0362935,-0.06475167,0.026267186,-0.02611447,-4.5750003,31.725,-12.0,watch_1
15289275478840,2.6416762,-8.175078,5.0362935,-0.06475167,0.026267186,-0.02611447,-2.0625,32.737503,-11.3625,watch_1
15289285478787,2.6416762,-8.175078,5.0362935,-0.06475167,0.026267186,-0.02611447,-3.6375,33.075,-10.425,watch_1
15289279778267,2.6799614,-8.246863,5.0219364,-0.06475167,0.026267186,-0.02611447,-3.6375,33.075,-10.425,watch_1
15289274815506,2.6799614,-8.246863,5.0219364,-0.041538805,0.010384701,-0.018784093,-3.6375,33.075,-10.425,watch_1
15289295478735,2.6799614,-8.246863,5.0219364,-0.041538805,0.010384701,-0.018784093,-3.7687502,32.081253,-11.0625,watch_1
15289305478683,2.6799614,-8.246863,5.0219364,-0.041538805,0.010384701,-0.018784093,-3.2625,32.41875,-10.3125,watch_1
15289298851235,2.6656044,-8.222935,4.988437,-0.041538805,0.010384701,-0.018784093,-3.2625,32.41875,-10.3125,watch_1
15289293888475,2.6656044,-8.222935,4.988437,-0.0024434591,0.0067195124,-0.013897174,-3.2625,32.41875,-10.3125,watch_1
15289315478631,2.6656044,-8.222935,4.988437,-0.0024434591,0.0067195124,-0.013897174,-2.79375,32.925003,-11.475,watch_1
15289325478579,2.6656044,-8.222935,4.988437,-0.0024434591,0.0067195124,-0.013897174,-5.25,30.900002,-11.118751,watch_1
15289317925246,2.6368906,-8.237292,4.9788656,0.034208428,0.0006108648,-0.005345067,-5.25,30.900002,-11.118751,watch_1
15289312962485,2.6368906,-8.237292,4.9788656,0.034208428,0.0006108648,-0.005345067,-5.25,30.900002,-11.118751,watch_1
15289335478527,2.6368906,-8.237292,4.9788656,0.034208428,0.0006108648,-0.005345067,-2.71875,33.3375,-10.200001,watch_1
15289345478475,2.6656044,-8.232507,5.0458646,0.034208428,0.0006108648,-0.005345067,-3.2062502,31.893751,-11.85,watch_1
15289336998267,2.6656044,-8.232507,5.0458646,0.034208428,0.0006108648,-0.005345067,-3.2062502,31.893751,-11.85,watch_1
15289332035506,2.6656044,-8.232507,5.0458646,0.046425723,0.0018325944,-0.009010255,-3.2062502,31.893751,-11.85,watch_1
15289355478423,2.6656044,-8.232507,5.0458646,0.046425723,0.0018325944,-0.009010255,-5.34375,31.63125,-12.356251,watch_1
15289365478371,2.6656044,-8.232507,5.0458646,0.046425723,0.0018325944,-0.009010255,-3.0937502,32.90625,-12.225,watch_1
15289356072277,2.6656044,-8.136793,5.0793643,0.046425723,0.0018325944,-0.009010255,-3.0937502,32.90625,-12.225,watch_1
15289351109517,2.6656044,-8.136793,5.0793643,0.02932151,0.011606431,-0.011453714,-3.0937502,32.90625,-12.225,watch_1
15289375478319,2.6656044,-8.136793,5.0793643,0.02932151,0.011606431,-0.011453714,-3.05625,34.443752,-11.212501,watch_1
15289370182485,2.6656044,-8.175078,4.97408,0.0,0.010384701,-0.013897174,-5.6062503,30.45,-11.400001,watch_1
15289375145246,2.6656044,-8.175078,4.97408,0.0,0.010384701,-0.013897174,-5.6062503,30.45,-11.400001,watch_1
15289385478267,2.6656044,-8.175078,4.97408,0.0,0.010384701,-0.013897174,-5.6062503,30.45,-11.400001,watch_1
15289395478215,2.6656044,-8.175078,4.97408,0.0,0.010384701,-0.013897174,-3.7500002,32.081253,-10.63125,watch_1
15289394219256,2.6703901,-8.199007,4.878367,0.0,0.010384701,-0.013897174,-3.7500002,32.081253,-10.63125,watch_1
15289405478162,2.6703901,-8.199007,4.878367,-0.0012217296,0.010384701,-0.013897174,-4.3875003,32.025,-11.418751,watch_1
15289389256496,2.6703901,-8.199007,4.878367,-0.0012217296,0.010384701,-0.013897174,-3.05625,34.7625,-12.562501,watch_1
15289415478110,2.6703901,-8.199007,4.878367,-0.0012217296,0.010384701,-0.013897174,-3.05625,34.7625,-12.562501,watch_1
15289413292277,2.6751757,-8.160722,4.825725,0.012217295,0.01527162,-0.012675445,-3.05625,34.7625,-12.562501,watch_1
15289425478058,2.6751757,-8.160722,4.825725,0.012217295,0.01527162,-0.012675445,-2.8500001,33.46875,-10.668751,watch_1
15289408329517,2.6751757,-8.160722,4.825725,0.012217295,0.01527162,-0.012675445,-2.8500001,33.46875,-10.668751,watch_1
15289435478006,2.6751757,-8.160722,4.825725,0.012217295,0.01527162,-0.012675445,-4.78125,32.53125,-11.8125,watch_1
15289427403475,2.6751757,-8.160722,4.825725,0.020769402,0.0140498895,-0.010231985,-4.78125,32.53125,-11.8125,watch_1
15289445477954,2.7230322,-8.127222,4.8448677,0.020769402,0.0140498895,-0.010231985,-3.61875,33.693752,-12.225,watch_1
15289432366235,2.7230322,-8.127222,4.8448677,0.020769402,0.0140498895,-0.010231985,-3.61875,33.693752,-12.225,watch_1
15289455477902,2.7230322,-8.127222,4.8448677,0.020769402,0.0140498895,-0.010231985,-3.8812501,32.5125,-11.55,watch_1
15289446446496,2.7469604,-8.136793,4.892724,0.014660755,0.020158539,-0.0029016077,-3.8812501,33.61875,-10.5,watch_1
15289465477850,2.7469604,-8.136793,4.892724,0.014660755,0.020158539,-0.0029016077,-3.8812501,33.61875,-10.5,watch_1
15289451409256,2.7469604,-8.136793,4.892724,0.014660755,0.020158539,-0.0029016077,-3.8812501,32.5125,-11.55,watch_1
15289475477798,2.7469604,-8.136793,4.892724,0.014660755,0.020158539,-0.0029016077,-3.075,31.781252,-12.262501,watch_1
15289465519517,2.7469604,-8.136793,4.892724,-0.0012217296,0.031154104,-0.009010255,-3.075,31.781252,-12.262501,watch_1
15289485477746,2.6895328,-8.208578,4.950152,-0.0012217296,0.031154104,-0.009010255,-4.40625,32.04375,-13.1625,watch_1
15289470482277,2.6895328,-8.208578,4.950152,-0.0012217296,0.031154104,-0.009010255,-4.40625,32.04375,-13.1625,watch_1
15289495477694,2.6895328,-8.208578,4.950152,-0.0012217296,0.031154104,-0.009010255,-4.2562504,30.6375,-12.58125,watch_1
15289484593475,2.6895328,-8.208578,4.964509,-0.013439025,0.032375835,-0.018784093,-4.2562504,30.6375,-12.58125,watch_1
15289489556235,2.6895328,-8.208578,4.964509,-0.0012217296,0.031154104,-0.009010255,-4.2562504,30.6375,-12.58125,watch_1
15289505477642,2.6895328,-8.208578,4.964509,-0.013439025,0.032375835,-0.018784093,-3.3187501,32.15625,-11.606251,watch_1
15289515477590,2.6895328,-8.208578,4.964509,-0.013439025,0.032375835,-0.018784093,-4.275,31.44375,-10.481251,watch_1
15289508629256,2.7182465,-8.218149,5.0458646,-0.013439025,0.032375835,-0.018784093,-4.275,31.44375,-10.481251,watch_1
15289503666496,2.7182465,-8.218149,5.0458646,-0.0012217296,0.025045456,-0.010231985,-3.525,31.875002,-12.468751,watch_1
15289525477537,2.7182465,-8.218149,5.0458646,-0.0012217296,0.025045456,-0.010231985,-3.525,31.875002,-12.468751,watch_1
15289535477485,2.6895328,-8.184649,5.0458646,-0.0012217296,0.025045456,-0.010231985,-4.74375,32.98125,-12.281251,watch_1
15289527703267,2.6895328,-8.184649,5.0458646,-0.0012217296,0.025045456,-0.010231985,-4.74375,32.98125,-12.281251,watch_1
15289522740506,2.6895328,-8.184649,5.0458646,-0.019547673,0.022601997,-0.012675445,-4.74375,32.98125,-12.281251,watch_1
15289545477433,2.6895328,-8.184649,5.0458646,-0.019547673,0.022601997,-0.012675445,-2.9625,32.79375,-12.356251,watch_1
15289555477381,2.6895328,-8.184649,5.0458646,-0.019547673,0.022601997,-0.012675445,-6.95625,33.112503,-12.4125,watch_1
15289546776235,2.6416762,-8.280363,4.959723,-0.045203995,0.011606431,-0.020005822,-6.95625,33.112503,-12.4125,watch_1
15289541813475,2.6416762,-8.280363,4.959723,-0.045203995,0.011606431,-0.020005822,-6.95625,33.112503,-12.4125,watch_1
15289565477329,2.6416762,-8.280363,4.959723,-0.045203995,0.011606431,-0.020005822,-3.2625,32.71875,-11.3625,watch_1
15289565850246,2.6656044,-8.208578,4.964509,-0.045203995,0.011606431,-0.020005822,-2.5687501,33.84375,-13.14375,watch_1
15289560887485,2.6656044,-8.208578,4.964509,-0.02443459,0.0006108648,-0.02367101,-2.5687501,33.84375,-13.14375,watch_1
15289575477277,2.6656044,-8.208578,4.964509,-0.02443459,0.0006108648,-0.02367101,-2.5687501,33.84375,-13.14375,watch_1
15289585477225,2.6656044,-8.208578,4.964509,-0.02443459,0.0006108648,-0.02367101,-2.68125,33.9375,-11.55,watch_1
15289584923267,2.6895328,-8.079366,5.002794,-0.02443459,0.0006108648,-0.02367101,-2.68125,33.9375,-11.55,watch_1
15289579960506,2.6895328,-8.079366,5.002794,0.0024434591,0.0030543238,-0.018784093,-2.68125,33.9375,-11.55,watch_1
15289595477173,2.6895328,-8.079366,5.002794,0.0024434591,0.0030543238,-0.018784093,-3.825,33.2625,-12.937501,watch_1
15289605477121,2.6895328,-8.079366,5.002794,0.0024434591,0.0030543238,-0.018784093,-3.825,33.2625,-12.937501,watch_1
15289603997277,2.6799614,-8.045866,4.950152,-0.019547673,0.005497783,-0.022449281,-3.825,33.2625,-12.937501,watch_1
15289599034517,2.6799614,-8.045866,4.950152,-0.019547673,0.005497783,-0.022449281,-3.825,33.2625,-12.937501,watch_1
15289615477069,2.6799614,-8.045866,4.950152,-0.019547673,0.005497783,-0.022449281,-4.18125,32.475002,-11.587501,watch_1
15289625477017,2.6799614,-8.045866,4.950152,-0.019547673,0.005497783,-0.022449281,-4.7250004,32.9625,-11.55,watch_1
15289618107485,2.6703901,-8.232507,4.935795,-0.020769402,0.0006108648,-0.016340632,-3.7687502,32.100002,-11.3625,watch_1
15289623070246,2.6703901,-8.232507,4.935795,-0.020769402,0.0006108648,-0.016340632,-4.7250004,32.9625,-11.55,watch_1
15289635476965,2.6703901,-8.232507,4.935795,-0.020769402,0.0006108648,-0.016340632,-3.7687502,32.100002,-11.3625,watch_1
15289645476912,2.6703901,-8.232507,4.935795,-0.020769402,0.0006108648,-0.016340632,-3.9750001,31.81875,-12.525001,watch_1
15289642113267,2.656033,-8.199007,4.983651,0.014660755,0.011606431,-0.0151189035,-3.9750001,31.81875,-12.525001,watch_1
15289637150506,2.656033,-8.199007,4.983651,0.014660755,0.011606431,-0.0151189035,-3.9750001,31.81875,-12.525001,watch_1
15289655476860,2.656033,-8.199007,4.983651,0.014660755,0.011606431,-0.0151189035,-3.7875001,33.225002,-11.043751,watch_1
15289665476808,2.656033,-8.199007,4.983651,0.014660755,0.011606431,-0.0151189035,-3.7687502,32.41875,-13.125001,watch_1
15289656224517,2.6608188,-8.04108,5.0123653,0.013439025,0.01527162,-0.016340632,-3.7687502,32.41875,-13.125001,watch_1
15289661187277,2.6608188,-8.04108,5.0123653,0.013439025,0.01527162,-0.016340632,-3.7687502,32.41875,-13.125001,watch_1
15289675476756,2.6608188,-8.04108,5.0123653,0.013439025,0.01527162,-0.016340632,-6.39375,31.500002,-12.468751,watch_1
15289685476704,2.6608188,-8.04108,5.0123653,0.013439025,0.01527162,-0.016340632,-3.3375,32.193752,-13.06875,watch_1
15289675297485,2.6656044,-8.045866,4.9453664,-0.041538805,0.016493348,-0.011453714,-3.3375,32.193752,-13.06875,watch_1
15289680260246,2.6656044,-8.045866,4.9453664,-0.041538805,0.016493348,-0.011453714,-3.3375,32.193752,-13.06875,watch_1
15289695476652,2.6656044,-8.045866,4.9453664,-0.041538805,0.016493348,-0.011453714,-5.15625,31.95,-12.806251,watch_1
15289705476600,2.6656044,-8.045866,4.9453664,-0.041538805,0.016493348,-0.011453714,-5.175,33.075,-12.7875,watch_1
15289699334256,2.6656044,-8.218149,4.907081,-0.05986475,0.010384701,-0.0029016077,-5.175,33.075,-12.7875,watch_1
15289694371496,2.6656044,-8.218149,4.907081,-0.05986475,0.010384701,-0.0029016077,-5.175,33.075,-12.7875,watch_1
15289715476548,2.6656044,-8.218149,4.907081,-0.05986475,0.010384701,-0.0029016077,-4.05,31.25625,-13.481251,watch_1
15289725476496,2.6656044,-8.218149,4.907081,-0.05986475,0.010384701,-0.0029016077,-3.61875,33.693752,-12.225,watch_1
15289718407277,2.6512475,-8.356933,4.935795,-0.02565632,0.009162972,0.00076358096,-3.61875,33.693752,-12.225,watch_1
15289713444517,2.6512475,-8.356933,4.935795,-0.02565632,0.009162972,0.00076358096,-3.61875,33.693752,-12.225,watch_1
15289735476444,2.6512475,-8.356933,4.935795,-0.02565632,0.009162972,0.00076358096,-3.80625,32.1375,-13.406251,watch_1
15289745476392,2.6512475,-8.356933,4.935795,-0.02565632,0.009162972,0.00076358096,-4.0687504,32.362503,-12.431251,watch_1
15289737481235,2.6751757,-8.304291,5.002794,-0.02565632,0.009162972,0.00076358096,-4.0687504,32.362503,-12.431251,watch_1
15289732518475,2.6751757,-8.304291,5.002794,0.0061086477,0.010384701,-0.009010255,-4.0687504,32.362503,-12.431251,watch_1
15289755476340,2.6751757,-8.304291,5.002794,0.0061086477,0.010384701,-0.009010255,-3.0375001,33.318752,-11.55,watch_1
15289765476287,2.6656044,-8.179864,4.9980083,0.0061086477,0.010384701,-0.009010255,-4.78125,32.53125,-11.8125,watch_1
15289751591496,2.6656044,-8.179864,4.9980083,0.010995566,0.007941242,-0.011453714,-4.78125,32.53125,-11.8125,watch_1
15289756554256,2.6656044,-8.179864,4.9980083,0.010995566,0.007941242,-0.011453714,-4.78125,32.53125,-11.8125,watch_1
15289775476235,2.6656044,-8.179864,4.9980083,0.010995566,0.007941242,-0.011453714,-4.2937503,33.037502,-12.525001,watch_1
15289785476183,2.6656044,-8.179864,4.9980083,0.010995566,0.007941242,-0.011453714,-4.0875,33.16875,-11.0625,watch_1
15289775628267,2.656033,-8.208578,4.959723,-0.0048869182,0.0030543238,-0.010231985,-5.11875,33.6375,-12.543751,watch_1
15289770665506,2.656033,-8.208578,4.959723,-0.0048869182,0.0030543238,-0.010231985,-5.11875,33.6375,-12.543751,watch_1
15289795476131,2.656033,-8.208578,4.959723,-0.0048869182,0.0030543238,-0.010231985,-5.11875,33.6375,-12.543751,watch_1
15289794701235,2.6751757,-8.242078,4.9549375,-0.0048869182,-0.0006108648,-0.013897174,-2.0625,32.756252,-12.093751,watch_1
15289789738475,2.6751757,-8.242078,4.9549375,-0.0048869182,-0.0006108648,-0.013897174,-2.0625,32.756252,-12.093751,watch_1
15289805476079,2.6751757,-8.242078,4.9549375,-0.0048869182,-0.0006108648,-0.013897174,-2.0625,32.756252,-12.093751,watch_1
15289815476027,2.6751757,-8.242078,4.9549375,-0.0048869182,-0.0006108648,-0.013897174,-3.1312501,32.625,-12.50625,watch_1
15289808781496,2.6895328,-8.256434,4.9980083,0.023212861,-0.009162972,-0.009010255,-3.1312501,32.625,-12.50625,watch_1
15289813744256,2.6895328,-8.256434,4.9980083,0.023212861,-0.009162972,-0.009010255,-3.1312501,32.625,-12.50625,watch_1
15289825475975,2.6895328,-8.256434,4.9980083,0.023212861,-0.009162972,-0.009010255,-4.6312504,31.143751,-12.243751,watch_1
15289835475923,2.6895328,-8.256434,4.9980083,0.023212861,-0.009162972,-0.009010255,-5.30625,32.081253,-13.425,watch_1
15289832817277,2.6751757,-8.270791,5.0506506,0.023212861,-0.009162972,-0.009010255,-5.30625,32.081253,-13.425,watch_1
15289845475871,2.6751757,-8.270791,5.0506506,0.02687805,-0.01282816,-0.011453714,-2.1000001,33.581253,-11.025001,watch_1
15289827854517,2.6751757,-8.270791,5.0506506,0.02687805,-0.01282816,-0.011453714,-2.1000001,33.581253,-11.025001,watch_1
15289855475819,2.6751757,-8.270791,5.0506506,0.02687805,-0.01282816,-0.011453714,-5.26875,32.04375,-11.38125,watch_1
15289851891235,2.6895328,-8.136793,5.0123653,0.012217295,-0.016493348,-0.0151189035,-5.26875,32.04375,-11.38125,watch_1
15289846928475,2.6895328,-8.136793,5.0123653,0.012217295,-0.016493348,-0.0151189035,-5.26875,32.04375,-11.38125,watch_1
15289865475767,2.6895328,-8.136793,5.0123653,0.012217295,-0.016493348,-0.0151189035,-3.9,33.6375,-11.53125,watch_1
15289875475715,2.6895328,-8.136793,5.0123653,0.012217295,-0.016493348,-0.0151189035,-3.0,33.600002,-10.9875,watch_1
15289870964256,2.6991038,-8.098508,4.950152,0.012217295,-0.016493348,-0.0151189035,-3.0,33.600002,-10.9875,watch_1
15289866001496,2.6991038,-8.098508,4.950152,0.008552107,-0.022601997,-0.0065667965,-3.0,33.600002,-10.9875,watch_1
15289885475662,2.6991038,-8.098508,4.950152,0.008552107,-0.022601997,-0.0065667965,-3.7500002,32.381252,-11.681251,watch_1
15289895475610,2.6991038,-8.098508,4.950152,0.008552107,-0.022601997,-0.0065667965,-4.0125003,32.643753,-11.7375,watch_1
15289890038267,2.6751757,-8.237292,4.9405804,0.017104214,-0.022601997,-0.0004581486,-4.0125003,32.643753,-11.7375,watch_1
15289885075506,2.6751757,-8.237292,4.9405804,0.017104214,-0.022601997,-0.0004581486,-4.0125003,32.643753,-11.7375,watch_1
15289909111235,2.656033,-8.313862,4.9788656,0.017104214,-0.022601997,-0.0004581486,-4.0125003,32.643753,-11.7375,watch_1
15289904148475,2.656033,-8.313862,4.9788656,0.041538805,-0.018936807,0.00076358096,-4.0125003,32.643753,-11.7375,watch_1
15289905475558,2.656033,-8.313862,4.9788656,0.041538805,-0.018936807,0.00076358096,-4.2000003,32.49375,-12.6,watch_1
15289915475506,2.656033,-8.313862,4.9788656,0.041538805,-0.018936807,0.00076358096,-3.15,33.73125,-11.7375,watch_1
15289925475454,2.656033,-8.313862,4.9788656,0.041538805,-0.018936807,0.00076358096,-3.15,33.73125,-11.7375,watch_1
15289928185246,2.6943183,-8.146365,5.0602217,0.041538805,-0.018936807,0.00076358096,-3.15,33.73125,-11.7375,watch_1
15289923222485,2.6943183,-8.146365,5.0602217,0.05131264,-0.017715078,-0.0004581486,-3.15,33.73125,-11.7375,watch_1
15289942295506,2.6943183,-8.146365,5.0602217,0.0073303776,-0.009162972,-0.004123337,-3.15,33.73125,-11.7375,watch_1
15289935475402,2.6943183,-8.146365,5.0602217,0.0073303776,-0.009162972,-0.004123337,-2.8500001,33.46875,-10.668751,watch_1
15289945475350,2.6943183,-8.146365,5.0602217,0.0073303776,-0.009162972,-0.004123337,-2.8500001,33.46875,-10.668751,watch_1
15289955475298,2.6943183,-8.146365,5.0602217,0.0073303776,-0.009162972,-0.004123337,-4.125,30.206251,-11.3625,watch_1
15289947258267,2.7182465,-7.9740815,5.0458646,0.0073303776,-0.009162972,-0.004123337,-2.04375,31.29375,-10.06875,watch_1
15289965475246,2.7182465,-7.9740815,5.0458646,0.0073303776,-0.009162972,-0.004123337,-2.04375,31.29375,-10.06875,watch_1
15289975475194,2.7182465,-7.9740815,5.0458646,0.0073303776,-0.009162972,-0.004123337,-2.1937501,32.53125,-9.46875,watch_1
15289966332277,2.7230322,-8.021938,4.859225,-0.05131264,-0.0042760535,-0.007788526,-2.1937501,32.53125,-9.46875,watch_1
15289961369517,2.7230322,-8.021938,4.859225,-0.05131264,-0.0042760535,-0.007788526,-2.1937501,32.53125,-9.46875,watch_1
15289985475142,2.7230322,-8.021938,4.859225,-0.05131264,-0.0042760535,-0.007788526,-2.4562502,31.66875,-10.293751,watch_1
15289985405246,2.7182465,-8.199007,4.840082,-0.05131264,-0.0042760535,-0.007788526,-2.4562502,31.66875,-10.293751,watch_1
15289980442485,2.7182465,-8.199007,4.840082,-0.012217295,-0.005497783,0.00076358096,-2.4562502,31.66875,-10.293751,watch_1
15289995475090,2.7182465,-8.199007,4.840082,-0.012217295,-0.005497783,0.00076358096,-3.5625002,29.681252,-9.356251,watch_1
15290005475037,2.7182465,-8.199007,4.840082,-0.012217295,-0.005497783,0.00076358096,-3.15,32.30625,-11.15625,watch_1
15289999485506,2.7182465,-8.199007,4.840082,0.06352994,0.0006108648,-0.0016798781,-2.90625,33.206253,-11.6625,watch_1
15290015474985,2.713461,-8.289934,4.9692945,0.06352994,0.0006108648,-0.0016798781,-2.90625,33.206253,-11.6625,watch_1
15290004448267,2.713461,-8.289934,4.9692945,0.06352994,0.0006108648,-0.0016798781,-2.90625,33.206253,-11.6625,watch_1
15290025474933,2.713461,-8.289934,4.9692945,0.06352994,0.0006108648,-0.0016798781,-1.85625,32.86875,-9.46875,watch_1
15290023522277,2.751746,-8.146365,5.1176496,0.06352994,-0.0018325944,-0.0065667965,-1.85625,32.86875,-9.46875,watch_1
15290018559517,2.751746,-8.146365,5.1176496,0.06352994,-0.0018325944,-0.0065667965,-3.2062502,33.487503,-13.181251,watch_1
15290035474881,2.751746,-8.146365,5.1176496,0.06352994,-0.0018325944,-0.0065667965,-3.2062502,33.487503,-13.181251,watch_1
15290045474829,2.751746,-8.146365,5.1176496,0.06352994,-0.0018325944,-0.0065667965,-4.4625,32.71875,-12.075001,watch_1
15290042595246,2.7565317,-8.155936,5.112864,-0.019547673,-0.007941242,-0.011453714,-4.4625,32.71875,-12.075001,watch_1
15290037632485,2.7565317,-8.155936,5.112864,-0.019547673,-0.007941242,-0.011453714,-4.4625,32.71875,-12.075001,watch_1
15290055474777,2.7565317,-8.155936,5.112864,-0.019547673,-0.007941242,-0.011453714,-4.0125003,33.112503,-13.81875,watch_1
15290065474725,2.7565317,-8.155936,5.112864,-0.019547673,-0.007941242,-0.011453714,-2.23125,34.0125,-12.243751,watch_1
15290061669256,2.7326035,-8.208578,4.907081,-0.019547673,-0.007941242,-0.011453714,-2.23125,34.0125,-12.243751,watch_1
15290056706496,2.7326035,-8.208578,4.907081,-0.09407318,-0.009162972,-0.0151189035,-2.23125,34.0125,-12.243751,watch_1
15290075474673,2.7326035,-8.208578,4.907081,-0.09407318,-0.009162972,-0.0151189035,-4.7625003,32.53125,-11.512501,watch_1
15290085474621,2.7326035,-8.208578,4.907081,-0.09407318,-0.009162972,-0.0151189035,-4.03125,32.643753,-12.468751,watch_1
15290080742277,2.7421749,-8.165507,4.8305106,-0.06352994,-0.005497783,-0.0065667965,-4.03125,32.643753,-12.468751,watch_1
15290075779517,2.7421749,-8.165507,4.8305106,-0.06352994,-0.005497783,-0.0065667965,-4.03125,32.643753,-12.468751,watch_1
15290105474517,2.7421749,-8.165507,4.8305106,-0.06352994,-0.005497783,-0.0065667965,-4.3125,31.48125,-12.225,watch_1
15290095474569,2.7421749,-8.165507,4.8305106,-0.06352994,-0.005497783,-0.0065667965,-4.3125,31.48125,-12.225,watch_1
15290099816235,2.6608188,-8.175078,4.8975096,-0.06352994,-0.005497783,-0.0065667965,-4.3125,31.48125,-12.225,watch_1
15290094853475,2.6608188,-8.175078,4.8975096,0.014660755,0.0006108648,0.00320704,-4.3125,31.48125,-12.225,watch_1
15290115474465,2.6608188,-8.175078,4.8975096,0.014660755,0.0006108648,0.00320704,-2.53125,30.937502,-9.65625,watch_1
15290125474412,2.6608188,-8.175078,4.8975096,0.014660755,0.0006108648,0.00320704,-3.73125,33.80625,-11.6625,watch_1
15290118889256,2.656033,-8.237292,5.0602217,0.05131264,-0.0030543238,-0.0004581486,-3.73125,33.80625,-11.6625,watch_1
15290113926496,2.656033,-8.237292,5.0602217,0.05131264,-0.0030543238,-0.0004581486,-3.73125,33.80625,-11.6625,watch_1
15290135474360,2.656033,-8.237292,5.0602217,0.05131264,-0.0030543238,-0.0004581486,-4.33125,33.7125,-11.137501,watch_1
15290145474308,2.656033,-8.237292,5.0602217,0.05131264,-0.0030543238,-0.0004581486,-5.30625,31.575,-10.03125,watch_1
15290137963267,2.6991038,-8.285149,5.132006,0.05131264,-0.0030543238,-0.0004581486,-5.30625,31.575,-10.03125,watch_1
15290133000506,2.6991038,-8.285149,5.132006,0.05131264,-0.005497783,-0.009010255,-5.30625,31.575,-10.03125,watch_1
15290155474256,2.6991038,-8.285149,5.132006,0.05131264,-0.005497783,-0.009010255,-4.4625,30.975,-9.58125,watch_1
15290165474204,2.6991038,-8.285149,5.132006,0.05131264,-0.005497783,-0.009010255,-2.5687501,30.35625,-9.168751,watch_1
15290157036235,2.6895328,-8.179864,5.112864,0.02932151,-0.009162972,-0.018784093,-2.5687501,30.35625,-9.168751,watch_1
15290152073475,2.6895328,-8.179864,5.112864,0.02932151,-0.009162972,-0.018784093,-2.5687501,30.35625,-9.168751,watch_1
15290175474152,2.6895328,-8.179864,5.112864,0.02932151,-0.009162972,-0.018784093,-3.7687502,32.4,-12.69375,watch_1
15290185474100,2.6895328,-8.179864,5.112864,0.02932151,-0.009162972,-0.018784093,-3.73125,32.7,-13.1625,watch_1
15290171147485,2.6608188,-8.045866,5.112864,-0.013439025,-0.016493348,-0.02367101,-3.73125,32.7,-13.1625,watch_1
15290176110246,2.6608188,-8.045866,5.112864,-0.013439025,-0.016493348,-0.02367101,-3.73125,32.7,-13.1625,watch_1
15290195474048,2.6608188,-8.045866,5.112864,-0.013439025,-0.016493348,-0.02367101,-4.3500004,32.30625,-11.7375,watch_1
15290190190506,2.6991038,-7.9597244,5.0219364,-0.07086031,-0.016493348,-0.013897174,-4.3500004,32.30625,-11.7375,watch_1
15290195153267,2.6991038,-7.9597244,5.0219364,-0.07086031,-0.016493348,-0.013897174,-4.3500004,32.30625,-11.7375,watch_1
15290205473996,2.6991038,-7.9597244,5.0219364,-0.07086031,-0.016493348,-0.013897174,-2.8875,32.4,-13.462501,watch_1
15290215473944,2.6991038,-7.9597244,5.0219364,-0.07086031,-0.016493348,-0.013897174,-3.7500002,32.381252,-11.681251,watch_1
15290214226235,2.6464617,-7.96451,4.950152,-0.11117739,-0.0067195124,0.0044287695,-3.7500002,32.381252,-11.681251,watch_1
15290209263475,2.6464617,-7.96451,4.950152,-0.11117739,-0.0067195124,0.0044287695,-3.7500002,32.381252,-11.681251,watch_1
15290225473892,2.6464617,-7.96451,4.950152,-0.11117739,-0.0067195124,0.0044287695,-2.3625002,32.7,-11.118751,watch_1
15290235473840,2.6464617,-7.96451,4.950152,-0.11117739,-0.0067195124,0.0044287695,-3.4125001,31.125002,-10.200001,watch_1
15290233300246,2.498107,-8.136793,4.9022956,-0.11117739,-0.0067195124,0.0044287695,-3.4125001,31.125002,-10.200001,watch_1
15290228337485,2.498107,-8.136793,4.9022956,-0.15149446,0.0006108648,0.020311253,-3.4125001,31.125002,-10.200001,watch_1
15290245473787,2.498107,-8.136793,4.9022956,-0.15149446,0.0006108648,0.020311253,-3.43125,32.568752,-11.94375,watch_1
15290255473735,2.498107,-8.136793,4.9022956,-0.15149446,0.0006108648,0.020311253,-2.2687502,33.393753,-10.14375,watch_1
15290247410506,2.3449662,-8.486146,4.878367,-0.15882485,-0.007941242,0.0129808765,-3.91875,33.65625,-12.262501,watch_1
15290265473683,2.3449662,-8.486146,4.878367,-0.15882485,-0.007941242,0.0129808765,-3.91875,33.65625,-12.262501,watch_1
15290252373267,2.3449662,-8.486146,4.878367,-0.15882485,-0.007941242,0.0129808765,-3.91875,33.65625,-12.262501,watch_1
15290275473631,2.3449662,-8.486146,4.878367,-0.15882485,-0.007941242,0.0129808765,-3.91875,33.65625,-12.262501,watch_1
15290271447277,2.359323,-8.433503,4.935795,-0.05864302,0.005497783,0.021532983,-3.91875,33.65625,-12.262501,watch_1
15290266484517,2.359323,-8.433503,4.935795,-0.05864302,0.005497783,0.021532983,-3.91875,33.65625,-12.262501,watch_1
15290285473579,2.359323,-8.433503,4.935795,-0.05864302,0.005497783,0.021532983,-4.0875,33.487503,-12.1125,watch_1
15290290520246,2.507678,-7.897511,5.026722,-0.05864302,0.005497783,0.021532983,-4.0875,33.487503,-12.1125,watch_1
15290295473527,2.507678,-7.897511,5.026722,-0.05864302,0.005497783,0.021532983,-4.59375,34.275,-12.39375,watch_1
15290305473475,2.507678,-7.897511,5.026722,-0.05864302,0.005497783,0.021532983,-3.1312501,32.30625,-10.425,watch_1
15290285557485,2.507678,-7.897511,5.026722,0.020769402,0.053145237,0.052076224,-3.1312501,32.30625,-10.425,watch_1
15290304631496,2.507678,-7.897511,5.026722,-0.0537561,0.083688475,0.11194097,-4.275,33.037502,-12.243751,watch_1
15290315473423,2.507678,-7.897511,5.026722,-0.0537561,0.083688475,0.11194097,-4.275,33.037502,-12.243751,watch_1
15290309594256,2.6225336,-7.5673018,5.122435,-0.0537561,0.083688475,0.11194097,-4.275,33.037502,-12.243751,watch_1
15290325473371,2.6225336,-7.5673018,5.122435,-0.0537561,0.083688475,0.11194097,-4.275,33.037502,-12.243751,watch_1
15290335473319,2.6225336,-7.5673018,5.122435,-0.0537561,0.083688475,0.11194097,-3.3187501,32.175003,-12.0375,watch_1
15290328667277,2.6081767,-7.911868,5.112864,-0.21135922,0.13622284,0.19257513,-3.3187501,32.175003,-12.0375,watch_1
15290323704517,2.6081767,-7.911868,5.112864,-0.21135922,0.13622284,0.19257513,-3.3187501,32.175003,-12.0375,watch_1
15290345473267,2.6081767,-7.911868,5.112864,-0.21135922,0.13622284,0.19257513,-2.025,34.29375,-11.08125,watch_1
15290355473215,2.6081767,-7.911868,5.112864,-0.21135922,0.13622284,0.19257513,-5.1375003,33.3375,-11.493751,watch_1
15290347741235,2.751746,-8.395218,4.8448677,-0.21135922,0.13622284,0.19257513,-5.1375003,33.3375,-11.493751,watch_1
15290342778475,2.751746,-8.395218,4.8448677,-0.32253662,0.18997894,0.24633121,-5.1375003,33.3375,-11.493751,watch_1
15290365473162,2.751746,-8.395218,4.8448677,-0.32253662,0.18997894,0.24633121,-4.425,31.593752,-11.38125,watch_1
15290375473110,2.751746,-8.395218,4.8448677,-0.32253662,0.18997894,0.24633121,-1.0125,33.675003,-8.868751,watch_1
15290366784256,2.5794628,-8.864211,4.691727,-0.20769402,0.2498437,0.27565274,-1.0125,33.675003,-8.868751,watch_1
15290361821496,2.5794628,-8.864211,4.691727,-0.20769402,0.2498437,0.27565274,-1.0125,33.675003,-8.868751,watch_1
15290385473058,2.5794628,-8.864211,4.691727,-0.20769402,0.2498437,0.27565274,-4.1625004,34.03125,-11.887501,watch_1
15290395473006,2.5794628,-8.864211,4.691727,-0.20769402,0.2498437,0.27565274,-3.4687502,32.30625,-12.50625,watch_1
15290385857277,2.4598217,-8.969496,5.00758,-0.20769402,0.2498437,0.27565274,-3.4687502,32.30625,-12.50625,watch_1
15290380894517,2.4598217,-8.969496,5.00758,0.04886918,0.28893903,0.28787002,-2.60625,33.24375,-11.625,watch_1
15290405472954,2.4598217,-8.969496,5.00758,0.04886918,0.28893903,0.28787002,-2.60625,33.24375,-11.625,watch_1
15290404930246,2.07697,-8.816355,5.1032925,0.04886918,0.28893903,0.28787002,-2.60625,33.24375,-11.625,watch_1
15290399967485,2.07697,-8.816355,5.1032925,0.21624613,0.33902994,0.26832235,-2.60625,33.24375,-11.625,watch_1
15290415472902,2.07697,-8.816355,5.1032925,0.21624613,0.33902994,0.26832235,-0.675,34.48125,-11.962501,watch_1
15290425472850,2.07697,-8.816355,5.1032925,0.21624613,0.33902994,0.26832235,-2.1000001,33.581253,-11.025001,watch_1
15290424004256,1.9621146,-8.548359,5.1463633,0.21624613,0.33902994,0.26832235,-2.1000001,33.581253,-11.025001,watch_1
15290435472798,1.9621146,-8.548359,5.1463633,0.26755878,0.32925612,0.22800528,-2.30625,32.9625,-10.106251,watch_1
15290419041496,1.9621146,-8.548359,5.1463633,0.26755878,0.32925612,0.22800528,-2.30625,32.9625,-10.106251,watch_1
15290445472746,1.9621146,-8.548359,5.1463633,0.26755878,0.32925612,0.22800528,-1.9125,32.60625,-10.9125,watch_1
15290438114517,1.7898313,-7.945368,5.2420764,0.34452772,0.34025168,0.29275694,-1.9125,32.60625,-10.9125,watch_1
15290443077277,1.7898313,-7.945368,5.2420764,0.34452772,0.34025168,0.29275694,-1.9125,32.60625,-10.9125,watch_1
15290465472642,1.7898313,-7.945368,5.2420764,0.34452772,0.34025168,0.29275694,-2.1750002,31.743752,-12.01875,watch_1
15290455472694,1.7898313,-7.945368,5.2420764,0.34452772,0.34025168,0.29275694,-2.1750002,31.743752,-12.01875,watch_1
15290462151235,1.6175481,-7.7300134,5.155935,0.34452772,0.34025168,0.29275694,-2.1750002,31.743752,-12.01875,watch_1
15290457188475,1.6175481,-7.7300134,5.155935,0.3604102,0.36712974,0.35384342,-2.1750002,31.743752,-12.01875,watch_1
15290475472590,1.6175481,-7.7300134,5.155935,0.3604102,0.36712974,0.35384342,-1.9875001,33.46875,-11.4375,watch_1
15290485472537,1.6175481,-7.7300134,5.155935,0.3604102,0.36712974,0.35384342,-2.775,31.81875,-12.225,watch_1
15290476261496,1.4644074,-7.945368,5.0123653,0.33719736,0.3830122,0.41004297,2.1937501,31.85625,-10.650001,watch_1
15290495472485,1.4644074,-7.945368,5.0123653,0.33719736,0.3830122,0.41004297,2.1937501,31.85625,-10.650001,watch_1
15290481224256,1.4644074,-7.945368,5.0123653,0.33719736,0.3830122,0.41004297,2.1937501,31.85625,-10.650001,watch_1
15290505472433,1.4644074,-7.945368,5.0123653,0.33719736,0.3830122,0.41004297,-1.2375001,31.987501,-11.0625,watch_1
15290500298267,1.2634103,-8.175078,5.0602217,0.4422661,0.3830122,0.47845984,-1.2375001,31.987501,-11.0625,watch_1
15290495335506,1.2634103,-8.175078,5.0602217,0.4422661,0.3830122,0.47845984,-1.2375001,31.987501,-11.0625,watch_1
15290515472381,1.2634103,-8.175078,5.0602217,0.4422661,0.3830122,0.47845984,0.31875002,29.1375,-7.2562504,watch_1
15290525472329,1.2634103,-8.175078,5.0602217,0.4422661,0.3830122,0.47845984,0.375,30.206251,-10.40625,watch_1
15290519371235,1.052842,-8.246863,5.4239306,0.5900954,0.3903426,0.5261073,0.375,30.206251,-10.40625,watch_1
15290514408475,1.052842,-8.246863,5.4239306,0.5900954,0.3903426,0.5261073,0.375,30.206251,-10.40625,watch_1
15290535472277,1.052842,-8.246863,5.4239306,0.5900954,0.3903426,0.5261073,-0.112500004,28.275002,-8.681251,watch_1
15290545472225,1.052842,-8.246863,5.4239306,0.5900954,0.3903426,0.5261073,1.0875001,29.85,-9.4125,watch_1
15290538445246,0.8662018,-7.6773715,5.634499,0.5900954,0.3903426,0.5261073,1.0875001,29.85,-9.4125,watch_1
15290533482485,0.8662018,-7.6773715,5.634499,0.5705477,0.43554658,0.54443324,1.0875001,29.85,-9.4125,watch_1
15290555472173,0.8662018,-7.6773715,5.634499,0.5705477,0.43554658,0.54443324,0.056250002,30.35625,-12.20625,watch_1
15290565472121,0.8662018,-7.6773715,5.634499,0.5705477,0.43554658,0.54443324,1.1812501,30.88125,-10.81875,watch_1
15290552525506,0.6987042,-7.328019,5.500501,0.39461866,0.5051852,0.5847503,1.1812501,30.88125,-10.81875,watch_1
15290557488267,0.6987042,-7.328019,5.500501,0.39461866,0.5051852,0.5847503,1.1812501,30.88125,-10.81875,watch_1
15290575472069,0.6987042,-7.328019,5.500501,0.39461866,0.5051852,0.5847503,2.025,32.025,-12.58125,watch_1
15290585472017,0.6987042,-7.328019,5.500501,0.39461866,0.5051852,0.5847503,2.1750002,30.6375,-12.431251,watch_1
15290576561235,0.53599226,-7.332805,5.280361,0.18570289,0.59925836,0.64339334,1.1625,31.237501,-13.6125,watch_1
15290595471965,0.53599226,-7.332805,5.280361,0.18570289,0.59925836,0.64339334,1.1625,31.237501,-13.6125,watch_1
15290571598475,0.53599226,-7.332805,5.280361,0.18570289,0.59925836,0.64339334,1.1625,31.237501,-13.6125,watch_1
15290605471912,0.3924229,-7.351948,5.38086,-0.02565632,0.7165444,0.7032581,2.8125,30.825,-10.762501,watch_1
15290595635246,0.3924229,-7.351948,5.38086,-0.02565632,0.7165444,0.7032581,2.8125,30.825,-10.762501,watch_1
15290590672485,0.2105684,-7.548159,5.67757,-0.02565632,0.7165444,0.7032581,1.48125,31.087502,-11.681251,watch_1
15290615471860,0.2105684,-7.548159,5.67757,-0.284663,0.83871734,0.766788,1.48125,31.087502,-11.681251,watch_1
15290614708267,0.2105684,-7.548159,5.67757,-0.284663,0.83871734,0.766788,5.68125,30.562502,-8.08125,watch_1
15290609745506,0.2105684,-7.548159,5.67757,-0.284663,0.83871734,0.766788,5.68125,30.562502,-8.08125,watch_1
15290625471808,0.2105684,-7.548159,5.67757,-0.284663,0.83871734,0.766788,5.68125,30.562502,-8.08125,watch_1
15290635471756,0.2105684,-7.548159,5.67757,-0.284663,0.83871734,0.766788,5.68125,30.562502,-8.08125,watch_1
15290633782277,-0.41635114,-8.711071,5.514858,-0.284663,0.83871734,0.766788,5.68125,30.562502,-8.08125,watch_1
15290628819517,-0.41635114,-8.711071,5.514858,-0.40683594,0.94134265,0.8327614,5.6062503,29.831251,-7.4437504,watch_1
15290645471704,-0.41635114,-8.711071,5.514858,-0.40683594,0.94134265,0.8327614,5.6062503,29.831251,-7.4437504,watch_1
15290655471652,-0.41635114,-8.711071,5.514858,-0.40683594,0.94134265,0.8327614,6.9,29.2875,-7.2375,watch_1
15290652855246,-1.5026926,-9.050852,5.648856,-0.40683594,0.94134265,0.8327614,6.9,29.2875,-7.2375,watch_1
15290647892485,-1.5026926,-9.050852,5.648856,-0.0036651888,1.1172717,0.8938479,7.2562504,31.66875,-9.900001,watch_1
15290665471600,-1.5026926,-9.050852,5.648856,-0.0036651888,1.1172717,0.8938479,7.2562504,31.66875,-9.900001,watch_1
15290675471548,-1.5026926,-9.050852,5.648856,-0.0036651888,1.1172717,0.8938479,5.3625,32.287502,-11.34375,watch_1
15290671929256,-2.2061825,-8.07458,7.893324,-0.0036651888,1.1172717,0.8938479,5.3625,32.287502,-11.34375,watch_1
15290666966496,-2.2061825,-8.07458,7.893324,0.54733485,1.2883139,1.0844377,5.3625,32.287502,-11.34375,watch_1
15290685471496,-2.2061825,-8.07458,7.893324,0.54733485,1.2883139,1.0844377,7.05,29.962502,-10.78125,watch_1
15290695471444,-2.2061825,-8.07458,7.893324,0.54733485,1.2883139,1.0844377,7.6312504,29.906252,-11.587501,watch_1
15290691002277,-2.78046,-7.4859457,10.305289,0.54733485,1.2883139,1.0844377,7.6312504,29.906252,-11.587501,watch_1
15290686039517,-2.78046,-7.4859457,10.305289,0.58032155,1.2858703,1.1174244,7.6312504,29.906252,-11.587501,watch_1
15290705471392,-2.78046,-7.4859457,10.305289,0.58032155,1.2858703,1.1174244,6.7875004,30.206251,-10.837501,watch_1
15290715471340,-2.78046,-7.4859457,10.305289,0.58032155,1.2858703,1.1174244,7.05,32.98125,-13.406251,watch_1
15290710076235,-3.1872396,-6.007181,12.023335,0.58032155,1.2858703,1.1174244,7.05,32.98125,-13.406251,watch_1
15290705113475,-3.1872396,-6.007181,12.023335,0.16737695,1.1417062,1.277471,7.05,32.98125,-13.406251,watch_1
15290725471287,-3.1872396,-6.007181,12.023335,0.16737695,1.1417062,1.277471,9.09375,31.425001,-14.175,watch_1
15290735471235,-3.1872396,-6.007181,12.023335,0.16737695,1.1417062,1.277471,8.85,32.90625,-12.468751,watch_1
15290729149256,-2.9479575,-6.643672,12.171691,-0.5192351,0.88758653,1.38987,8.85,32.90625,-12.468751,watch_1
15290724186496,-2.9479575,-6.643672,12.171691,-0.5192351,0.88758653,1.38987,8.85,32.90625,-12.468751,watch_1
15290745471183,-2.9479575,-6.643672,12.171691,-0.5192351,0.88758653,1.38987,11.025001,33.45,-10.950001,watch_1
15290755471131,-2.9479575,-6.643672,12.171691,-0.5192351,0.88758653,1.38987,8.56875,30.16875,-11.212501,watch_1
15290748192277,-2.2636101,-7.806584,11.171491,-0.5192351,0.88758653,1.38987,8.56875,30.16875,-11.212501,watch_1
15290765471079,-2.2636101,-7.806584,11.171491,-0.86987144,0.49418962,1.5829034,11.83125,31.275002,-10.650001,watch_1
15290743229517,-2.2636101,-7.806584,11.171491,-0.86987144,0.49418962,1.5829034,11.83125,31.275002,-10.650001,watch_1
15290775471027,-2.2636101,-7.806584,11.171491,-0.86987144,0.49418962,1.5829034,10.8,33.037502,-12.543751,watch_1
15290767266235,-2.1966112,-9.48156,10.8556385,-0.37995788,0.19486587,1.8077016,10.8,33.037502,-12.543751,watch_1
15290762303475,-2.1966112,-9.48156,10.8556385,-0.37995788,0.19486587,1.8077016,10.8,33.037502,-12.543751,watch_1
15290785470975,-2.1966112,-9.48156,10.8556385,-0.37995788,0.19486587,1.8077016,12.806251,32.1375,-11.493751,watch_1
15290795470923,-2.1966112,-9.48156,10.8556385,-0.37995788,0.19486587,1.8077016,12.093751,32.475002,-11.90625,watch_1
15290786339256,-2.7756743,-10.850254,11.956337,0.25534147,-0.076358095,1.8492404,12.093751,32.475002,-11.90625,watch_1
15290781376496,-2.7756743,-10.850254,11.956337,0.25534147,-0.076358095,1.8492404,12.093751,32.475002,-11.90625,watch_1
15290805470871,-2.7756743,-10.850254,11.956337,0.25534147,-0.076358095,1.8492404,11.15625,32.2125,-12.13125,watch_1
15290805413267,-3.1393833,-10.161121,12.9134655,0.25534147,-0.076358095,1.8492404,11.15625,32.2125,-12.13125,watch_1
15290800450506,-3.1393833,-10.161121,12.9134655,0.4386009,-0.4978548,1.8113668,14.043751,32.90625,-13.6125,watch_1
15290815470819,-3.1393833,-10.161121,12.9134655,0.4386009,-0.4978548,1.8113668,14.043751,32.90625,-13.6125,watch_1
15290825470767,-3.1393833,-10.161121,12.9134655,0.4386009,-0.4978548,1.8113668,15.525001,34.0875,-13.556251,watch_1
15290835470715,-3.1393833,-10.161121,12.9134655,0.38728827,-1.0586287,1.8541273,13.575001,32.568752,-13.63125,watch_1
15290819523475,-3.1393833,-10.161121,12.9134655,0.38728827,-1.0586287,1.8541273,13.575001,32.568752,-13.63125,watch_1
15290824486235,-3.306881,-10.07498,13.162319,0.38728827,-1.0586287,1.8541273,13.575001,32.568752,-13.63125,watch_1
15290845470662,-3.306881,-10.07498,13.162319,0.38728827,-1.0586287,1.8541273,16.875,31.425001,-13.275001,watch_1
15290843560246,-3.5509489,-11.419746,13.152748,0.36407542,-1.60352,1.8028147,16.875,31.425001,-13.275001,watch_1
15290838597485,-3.5509489,-11.419746,13.152748,0.36407542,-1.60352,1.8028147,16.875,31.425001,-13.275001,watch_1
15290855470610,-3.5509489,-11.419746,13.152748,0.36407542,-1.60352,1.8028147,16.143751,31.650002,-14.400001,watch_1
15290865470558,-3.5509489,-11.419746,13.152748,0.36407542,-1.60352,1.8028147,15.843751,31.612501,-14.437501,watch_1
15290857670506,-3.7280176,-12.491731,12.64547,0.63407767,-2.1019857,1.607338,15.843751,31.612501,-14.437501,watch_1
15290862633267,-3.7280176,-12.491731,12.64547,0.36407542,-1.60352,1.8028147,15.843751,31.612501,-14.437501,watch_1
15290875470506,-3.7280176,-12.491731,12.64547,0.63407767,-2.1019857,1.607338,17.081251,32.04375,-13.89375,watch_1
15290885470454,-3.7280176,-12.491731,12.64547,0.63407767,-2.1019857,1.607338,15.656251,31.462502,-15.31875,watch_1
15290881707277,-3.4839497,-12.238091,11.927623,0.63407767,-2.1019857,1.607338,15.656251,31.462502,-15.31875,watch_1
15290876744517,-3.4839497,-12.238091,11.927623,1.1911863,-2.5234823,1.3996439,15.656251,31.462502,-15.31875,watch_1
15290895470402,-3.4839497,-12.238091,11.927623,1.1911863,-2.5234823,1.3996439,19.95,32.4375,-14.625001,watch_1
15290905470350,-3.4839497,-12.238091,11.927623,1.1911863,-2.5234823,1.3996439,17.41875,31.9125,-18.9375,watch_1
15290895817485,-3.1441689,-10.99861,11.784053,1.55404,-2.9462008,1.2786927,17.41875,31.9125,-18.9375,watch_1
15290900780246,-3.1441689,-10.99861,11.784053,1.55404,-2.9462008,1.2786927,17.41875,31.9125,-18.9375,watch_1
15290915470298,-3.1441689,-10.99861,11.784053,1.55404,-2.9462008,1.2786927,16.7625,29.6625,-17.04375,watch_1
15290925470246,-3.1441689,-10.99861,11.784053,1.55404,-2.9462008,1.2786927,15.562501,30.150002,-20.4375,watch_1
15290919823267,-2.7230322,-10.390832,11.166705,1.55404,-2.9462008,1.2786927,15.562501,30.150002,-20.4375,watch_1
15290914860506,-2.7230322,-10.390832,11.166705,1.6859868,-3.321272,1.1711805,15.993751,30.075,-20.5125,watch_1
15290935470194,-2.7230322,-10.390832,11.166705,1.6859868,-3.321272,1.1711805,15.993751,30.075,-20.5125,watch_1
15290945470142,-2.7230322,-10.390832,11.166705,1.6859868,-3.321272,1.1711805,15.993751,30.075,-20.5125,watch_1
15290933934517,-2.7230322,-10.390832,11.166705,1.7360777,-3.6267042,1.0367903,15.993751,30.075,-20.5125,watch_1
15290938897277,-2.4215364,-10.295119,10.5685,1.7360777,-3.6267042,1.0367903,15.993751,30.075,-20.5125,watch_1
15290955470090,-2.4215364,-10.295119,10.5685,1.7360777,-3.6267042,1.0367903,15.468751,28.35,-22.44375,watch_1
15290965470037,-2.4215364,-10.295119,10.5685,1.7360777,-3.6267042,1.0367903,13.650001,28.125002,-22.9125,watch_1
15290953007485,-2.4215364,-10.295119,10.5685,1.8154901,-3.8832674,0.92194766,13.650001,28.125002,-22.9125,watch_1
15290957970246,-1.7084754,-10.309476,10.300504,1.8154901,-3.8832674,0.92194766,13.650001,28.125002,-22.9125,watch_1
15290975469985,-1.7084754,-10.309476,10.300504,1.8154901,-3.8832674,0.92194766,17.2875,28.593752,-23.2875,watch_1
15290985469933,-1.7084754,-10.309476,10.300504,1.8154901,-3.8832674,0.92194766,13.762501,26.75625,-24.525002,watch_1
15290972081496,-0.66999036,-9.629914,9.654441,1.888794,-4.0103273,0.798553,13.762501,26.75625,-24.525002,watch_1
15290977044256,-0.66999036,-9.629914,9.654441,1.888794,-4.0103273,0.798553,13.762501,26.75625,-24.525002,watch_1
15290995469881,-0.66999036,-9.629914,9.654441,1.888794,-4.0103273,0.798553,13.06875,27.581251,-27.150002,watch_1
15291005469829,-0.66999036,-9.629914,9.654441,1.888794,-4.0103273,0.798553,12.993751,27.018751,-27.825,watch_1
15290996117277,0.014356935,-8.514859,9.0849495,1.9022329,-4.046979,0.7338013,12.993751,27.018751,-27.825,watch_1
15290991154517,0.014356935,-8.514859,9.0849495,1.9022329,-4.046979,0.7338013,12.993751,27.018751,-27.825,watch_1
15291015469777,0.014356935,-8.514859,9.0849495,1.9022329,-4.046979,0.7338013,11.26875,25.10625,-28.706251,watch_1
15291015191235,0.71306115,-7.9740815,8.525029,1.7690644,-4.028653,0.68981904,11.025001,25.800001,-29.531252,watch_1
15291010228475,0.71306115,-7.9740815,8.525029,1.7690644,-4.028653,0.68981904,11.025001,25.800001,-29.531252,watch_1
15291025469725,0.71306115,-7.9740815,8.525029,1.9022329,-4.046979,0.7338013,11.025001,25.800001,-29.531252,watch_1
15291035469673,0.71306115,-7.9740815,8.525029,1.7690644,-4.028653,0.68981904,9.1875,25.593752,-30.45,watch_1
15291034264256,1.564906,-7.318448,8.429316,1.6224569,-3.9455757,0.67393655,7.8375,24.13125,-30.31875,watch_1
15291029301496,1.564906,-7.318448,8.429316,1.6224569,-3.9455757,0.67393655,7.8375,24.13125,-30.31875,watch_1
15291045469621,1.564906,-7.318448,8.429316,1.6224569,-3.9455757,0.67393655,7.8375,24.13125,-30.31875,watch_1
15291055469569,1.564906,-7.318448,8.429316,1.6224569,-3.9455757,0.67393655,6.99375,24.6,-30.900002,watch_1
15291048374517,1.9908284,-6.2847486,7.673184,1.535714,-3.894263,0.75212723,8.45625,21.84375,-31.48125,watch_1
15291065469517,1.9908284,-6.2847486,7.673184,1.535714,-3.894263,0.75212723,8.45625,21.84375,-31.48125,watch_1
15291053337277,1.9908284,-6.2847486,7.673184,1.535714,-3.894263,0.75212723,8.45625,21.84375,-31.48125,watch_1
15291075469465,1.9908284,-6.2847486,7.673184,1.535714,-3.894263,0.75212723,5.4375,21.6,-31.95,watch_1
15291072411235,1.9381863,-5.0883374,6.960123,1.3866631,-3.8783805,0.88896096,5.4375,21.6,-31.95,watch_1
15291067448475,1.9381863,-5.0883374,6.960123,1.3866631,-3.8783805,0.88896096,5.4375,21.6,-31.95,watch_1
15291085469412,1.9381863,-5.0883374,6.960123,1.3866631,-3.8783805,0.88896096,5.26875,21.431252,-31.500002,watch_1
15291095469360,1.9381863,-5.0883374,6.960123,1.3866631,-3.8783805,0.88896096,5.53125,21.0375,-31.725,watch_1
15291091484256,1.7563318,-4.6815577,6.2470617,0.98715746,-3.8331764,1.0819943,5.53125,21.0375,-31.725,watch_1
15291086521496,1.7563318,-4.6815577,6.2470617,0.98715746,-3.8331764,1.0819943,5.53125,21.0375,-31.725,watch_1
15291105469308,1.7563318,-4.6815577,6.2470617,0.98715746,-3.8331764,1.0819943,4.0687504,21.431252,-32.381252,watch_1
15291115469256,1.7563318,-4.6815577,6.2470617,0.98715746,-3.8331764,1.0819943,3.5625002,22.21875,-32.362503,watch_1
15291110527277,1.2442678,-5.346762,5.4957156,0.98715746,-3.8331764,1.0819943,3.5625002,22.21875,-32.362503,watch_1
15291105564517,1.2442678,-5.346762,5.4957156,0.47769627,-3.7391033,1.2554798,3.5625002,22.21875,-32.362503,watch_1
15291125469204,1.2442678,-5.346762,5.4957156,0.47769627,-3.7391033,1.2554798,1.4625001,21.13125,-34.10625,watch_1
15291135469152,1.2442678,-5.346762,5.4957156,0.47769627,-3.7391033,1.2554798,1.5937501,22.10625,-32.71875,watch_1
15291129601235,0.4019942,-6.562316,4.438088,0.47769627,-3.7391033,1.2554798,1.5937501,22.10625,-32.71875,watch_1
15291124638475,0.4019942,-6.562316,4.438088,0.20525056,-3.681682,1.3336705,1.5937501,22.10625,-32.71875,watch_1
15291145469100,0.4019942,-6.562316,4.438088,0.20525056,-3.681682,1.3336705,-0.075,20.325,-32.006252,watch_1
15291148674256,-0.13399807,-6.859026,3.5814574,0.20525056,-3.681682,1.3336705,-1.3875,22.29375,-33.375,watch_1
15291155469048,-0.13399807,-6.859026,3.5814574,0.20525056,-3.681682,1.3336705,-1.3875,22.29375,-33.375,watch_1
15291143711496,-0.13399807,-6.859026,3.5814574,0.25045455,-3.6853473,1.35444,-1.4250001,20.4375,-32.325,watch_1
15291165468996,-0.13399807,-6.859026,3.5814574,0.25045455,-3.6853473,1.35444,-1.4250001,20.4375,-32.325,watch_1
15291175468944,-0.047856454,-6.122037,2.6099713,0.25045455,-3.6853473,1.35444,-2.4375,20.90625,-34.0875,watch_1
15291167748267,-0.047856454,-6.122037,2.6099713,0.25045455,-3.6853473,1.35444,-2.4375,20.90625,-34.0875,watch_1
15291162785506,-0.047856454,-6.122037,2.6099713,0.37873617,-3.6938994,1.386205,-2.4375,20.90625,-34.0875,watch_1
15291185468892,-0.047856454,-6.122037,2.6099713,0.37873617,-3.6938994,1.386205,-2.8875,20.6625,-31.931252,watch_1
15291195468840,0.124426775,-5.877969,1.494916,0.41050112,-3.5949392,1.4436262,-5.83125,21.13125,-32.60625,watch_1
15291186821235,0.124426775,-5.877969,1.494916,0.41050112,-3.5949392,1.4436262,-5.83125,21.13125,-32.60625,watch_1
15291181858475,0.124426775,-5.877969,1.494916,0.41050112,-3.5949392,1.4436262,-5.83125,21.13125,-32.60625,watch_1
15291205468787,0.124426775,-5.877969,1.494916,0.41050112,-3.5949392,1.4436262,-4.125,22.9125,-32.30625,watch_1
15291215468735,0.124426775,-5.877969,1.494916,0.41050112,-3.5949392,1.4436262,-4.78125,21.28125,-33.375,watch_1
15291205895246,0.10049855,-5.7056856,0.8153543,0.20280711,-3.3469281,1.386205,-4.78125,21.28125,-33.375,watch_1
15291200932485,0.10049855,-5.7056856,0.8153543,0.20280711,-3.3469281,1.386205,-4.78125,21.28125,-33.375,watch_1
15291225468683,0.10049855,-5.7056856,0.8153543,0.20280711,-3.3469281,1.386205,-5.025,20.081251,-31.5375,watch_1
15291220005506,0.10049855,-5.7056856,0.8153543,0.0061086477,-3.0170612,1.250593,-5.64375,21.28125,-31.725,watch_1
15291235468631,0.10049855,-5.7056856,0.8153543,0.0061086477,-3.0170612,1.250593,-5.64375,21.28125,-31.725,watch_1
15291224968267,0.7369894,-5.662615,0.8249256,0.0061086477,-3.0170612,1.250593,-5.64375,21.28125,-31.725,watch_1
15291245468579,0.7369894,-5.662615,0.8249256,0.0061086477,-3.0170612,1.250593,-6.9,19.10625,-30.206251,watch_1
15291239079517,1.5122639,-4.8681974,1.7581264,-0.12339468,-2.6981897,1.1430807,-6.9,19.10625,-30.206251,watch_1
15291244042277,1.5122639,-4.8681974,1.7581264,-0.12339468,-2.6981897,1.1430807,-6.9,19.10625,-30.206251,watch_1
15291255468527,1.5122639,-4.8681974,1.7581264,-0.12339468,-2.6981897,1.1430807,-7.7250004,19.85625,-30.956251,watch_1
15291265468475,1.5122639,-4.8681974,1.7581264,-0.12339468,-2.6981897,1.1430807,-7.8750005,22.6875,-31.687502,watch_1
15291263115246,0.8757731,-4.3561335,2.5286152,-0.12339468,-2.6981897,1.1430807,-7.8750005,22.6875,-31.687502,watch_1
15291258152485,0.8757731,-4.3561335,2.5286152,-0.44837475,-2.4342961,1.0746639,-7.7625003,22.10625,-30.16875,watch_1
15291275468423,0.8757731,-4.3561335,2.5286152,-0.44837475,-2.4342961,1.0746639,-7.7625003,22.10625,-30.16875,watch_1
15291285468371,0.8757731,-4.3561335,2.5286152,-0.44837475,-2.4342961,1.0746639,-8.962501,20.6625,-30.16875,watch_1
15291282189256,0.76570326,-5.48076,2.5238297,-1.0555743,-2.236376,0.9195042,-8.962501,20.6625,-30.16875,watch_1
15291277226496,0.76570326,-5.48076,2.5238297,-1.0555743,-2.236376,0.9195042,-8.962501,20.6625,-30.16875,watch_1
15291295468319,0.76570326,-5.48076,2.5238297,-1.0555743,-2.236376,0.9195042,-8.71875,22.3125,-26.6625,watch_1
15291305468267,0.76570326,-5.48076,2.5238297,-1.0555743,-2.236376,0.9195042,-8.868751,25.29375,-27.993752,watch_1
15291296269517,1.550549,-5.992824,2.9832516,-1.3243549,-1.99203,0.67638004,-10.1625,23.15625,-28.218752,watch_1
15291315468215,1.550549,-5.992824,2.9832516,-1.3243549,-1.99203,0.67638004,-10.1625,23.15625,-28.218752,watch_1
15291301232277,1.550549,-5.992824,2.9832516,-1.3243549,-1.99203,0.67638004,-10.1625,23.15625,-28.218752,watch_1
15291325468162,1.550549,-5.992824,2.9832516,-1.3243549,-1.99203,0.67638004,-9.09375,24.393751,-27.056252,watch_1
15291320305246,2.498107,-4.9399824,3.2416766,-1.3524547,-1.8197662,0.4356993,-9.09375,24.393751,-27.056252,watch_1
15291315342485,2.498107,-4.9399824,3.2416766,-1.3524547,-1.8197662,0.4356993,-9.09375,24.393751,-27.056252,watch_1
15291335468110,2.498107,-4.9399824,3.2416766,-1.3524547,-1.8197662,0.4356993,-9.056251,24.675001,-26.643751,watch_1
15291345468058,2.498107,-4.9399824,3.2416766,-1.3524547,-1.8197662,0.4356993,-10.35,24.900002,-24.91875,watch_1
15291339379256,3.2350962,-5.4664035,2.3228326,-1.3524547,-1.8197662,0.4356993,-10.35,24.900002,-24.91875,watch_1
15291334416496,3.2350962,-5.4664035,2.3228326,-1.6957606,-1.5680898,0.22556181,-9.50625,25.5375,-23.4375,watch_1
15291355468006,3.2350962,-5.4664035,2.3228326,-1.6957606,-1.5680898,0.22556181,-9.50625,25.5375,-23.4375,watch_1
15291365467954,3.2350962,-5.4664035,2.3228326,-1.6957606,-1.5680898,0.22556181,-10.931251,26.362501,-24.4125,watch_1
15291358452277,3.5653057,-5.767899,1.9064814,-1.6957606,-1.5680898,0.22556181,-10.931251,26.362501,-24.4125,watch_1
15291353489517,3.5653057,-5.767899,1.9064814,-2.0366232,-1.2492185,0.041080657,-9.7875,27.225,-24.656252,watch_1
15291375467902,3.5653057,-5.767899,1.9064814,-2.0366232,-1.2492185,0.041080657,-9.7875,27.225,-24.656252,watch_1
15291385467850,3.5653057,-5.767899,1.9064814,-2.0366232,-1.2492185,0.041080657,-11.1,25.556252,-20.85,watch_1
15291372563475,4.369294,-6.3996043,1.1742777,-2.2601998,-0.94256437,-0.1556178,-11.1,25.556252,-20.85,watch_1
15291377526235,4.369294,-6.3996043,1.1742777,-2.2601998,-0.94256437,-0.1556178,-11.1,25.556252,-20.85,watch_1
15291395467798,4.369294,-6.3996043,1.1742777,-2.2601998,-0.94256437,-0.1556178,-12.3,26.643751,-19.650002,watch_1
15291405467746,4.369294,-6.3996043,1.1742777,-2.2601998,-0.94256437,-0.1556178,-10.89375,26.775002,-16.893751,watch_1
15291396599256,4.7808595,-7.797013,-0.26620153,-2.235765,-0.6346885,-0.366977,-10.89375,26.775002,-16.893751,watch_1
15291391636496,4.7808595,-7.797013,-0.26620153,-2.235765,-0.6346885,-0.366977,-10.89375,26.775002,-16.893751,watch_1
15291415467694,4.7808595,-7.797013,-0.26620153,-2.235765,-0.6346885,-0.366977,-11.118751,27.7875,-19.63125,watch_1
15291425467642,4.7808595,-7.797013,-0.26620153,-2.235765,-0.6346885,-0.366977,-10.481251,27.825,-17.6625,watch_1
15291415673267,5.259424,-7.6869426,-0.16570297,-2.235765,-0.6346885,-0.366977,-10.481251,27.825,-17.6625,watch_1
15291410710506,5.259424,-7.6869426,-0.16570297,-1.6847651,-0.29626942,-0.5673407,-10.481251,27.825,-17.6625,watch_1
15291435467590,5.259424,-7.6869426,-0.16570297,-1.6847651,-0.29626942,-0.5673407,-12.58125,27.843752,-17.90625,watch_1
15291429783475,5.919843,-6.4618177,0.8919246,-1.210734,0.005497783,-0.7139482,-12.056251,29.737501,-17.456251,watch_1
15291434746235,5.919843,-6.4618177,0.8919246,-1.210734,0.005497783,-0.7139482,-12.056251,29.737501,-17.456251,watch_1
15291445467537,5.919843,-6.4618177,0.8919246,-1.210734,0.005497783,-0.7139482,-12.056251,29.737501,-17.456251,watch_1
15291455467485,5.919843,-6.4618177,0.8919246,-1.210734,0.005497783,-0.7139482,-14.08125,27.7875,-17.79375,watch_1
15291448857485,5.919843,-6.4618177,0.8919246,-0.9676098,0.22785257,-0.7958041,-13.70625,28.218752,-16.181252,watch_1
15291465467433,5.919843,-6.4618177,0.8919246,-0.9676098,0.22785257,-0.7958041,-13.70625,28.218752,-16.181252,watch_1
15291453820246,6.029913,-7.342376,0.72442704,-0.9676098,0.22785257,-0.7958041,-13.70625,28.218752,-16.181252,watch_1
15291475467381,6.029913,-7.342376,0.72442704,-0.9676098,0.22785257,-0.7958041,-12.76875,28.800001,-17.587502,watch_1
15291472863267,5.5800624,-6.5144596,0.37507495,-0.9676098,0.22785257,-0.7958041,-12.76875,28.800001,-17.587502,watch_1
15291467900506,5.5800624,-6.5144596,0.37507495,-0.44715303,0.4147772,-0.91919875,-12.76875,28.800001,-17.587502,watch_1
15291485467329,5.5800624,-6.5144596,0.37507495,-0.44715303,0.4147772,-0.91919875,-13.6125,29.250002,-17.587502,watch_1
15291495467277,5.5800624,-6.5144596,0.37507495,-0.44715303,0.4147772,-0.91919875,-13.031251,27.618752,-16.63125,watch_1
15291486973475,5.5800624,-6.5144596,0.37507495,-0.017104214,0.6236929,-1.0621412,-13.031251,27.618752,-16.63125,watch_1
15291491936235,5.383851,-5.7583275,1.8203398,-0.017104214,0.6236929,-1.0621412,-14.062501,27.768751,-16.48125,watch_1
15291505467225,5.383851,-5.7583275,1.8203398,-0.017104214,0.6236929,-1.0621412,-14.062501,27.768751,-16.48125,watch_1
15291515467173,5.383851,-5.7583275,1.8203398,-0.017104214,0.6236929,-1.0621412,-14.1,26.400002,-18.806252,watch_1
15291511010246,6.206982,-5.562116,3.2416766,0.31520623,0.6676752,-1.1782055,-14.85,27.375002,-16.81875,watch_1
15291525467121,6.206982,-5.562116,3.2416766,0.31520623,0.6676752,-1.1782055,-14.85,27.375002,-16.81875,watch_1
15291506047485,6.206982,-5.562116,3.2416766,0.31520623,0.6676752,-1.1782055,-14.1,26.400002,-18.806252,watch_1
15291535467069,6.206982,-5.562116,3.2416766,0.31520623,0.6676752,-1.1782055,-15.900001,26.1375,-17.681252,watch_1
15291525120506,6.6281185,-6.346962,3.1076784,1.0042617,0.62491465,-1.1061234,-15.900001,26.1375,-17.681252,watch_1
15291530083267,6.6281185,-6.346962,3.1076784,1.0042617,0.62491465,-1.1061234,-15.900001,26.1375,-17.681252,watch_1
15291545467017,6.6281185,-6.346962,3.1076784,1.0042617,0.62491465,-1.1061234,-15.806251,25.575,-17.475,watch_1
15291555466965,6.6281185,-6.346962,3.1076784,1.0042617,0.62491465,-1.1061234,-15.88125,25.331251,-19.78125,watch_1
15291549157277,6.8721867,-5.7487564,3.1316066,1.0042617,0.62491465,-1.1061234,-15.88125,25.331251,-19.78125,watch_1
15291544194517,6.8721867,-5.7487564,3.1316066,2.0427318,0.59803665,-0.963181,-14.306251,23.268751,-19.40625,watch_1
15291565466912,6.8721867,-5.7487564,3.1316066,2.0427318,0.59803665,-0.963181,-14.306251,23.268751,-19.40625,watch_1
15291575466860,6.8721867,-5.7487564,3.1316066,2.0427318,0.59803665,-0.963181,-13.218751,25.29375,-21.375,watch_1
15291563267485,6.8721867,-5.7487564,3.1316066,2.8050911,0.61269736,-0.8019127,-13.218751,25.29375,-21.375,watch_1
15291568230246,7.23111,-3.1932218,4.2945185,2.8050911,0.61269736,-0.8019127,-13.218751,25.29375,-21.375,watch_1
15291585466808,7.23111,-3.1932218,4.2945185,2.8050911,0.61269736,-0.8019127,-16.48125,21.7875,-22.706251,watch_1
15291595466756,7.23111,-3.1932218,4.2945185,2.8050911,0.61269736,-0.8019127,-16.125,23.681252,-22.706251,watch_1
15291587304256,6.8051877,-2.0111675,5.811568,2.7097962,0.5882628,-0.59544045,-16.125,23.681252,-22.706251,watch_1
15291582341496,6.8051877,-2.0111675,5.811568,2.7097962,0.5882628,-0.59544045,-16.125,23.681252,-22.706251,watch_1
15291605466704,6.8051877,-2.0111675,5.811568,2.7097962,0.5882628,-0.59544045,-16.650002,22.125,-26.250002,watch_1
15291615466853,6.8051877,-2.0111675,5.811568,2.7097962,0.5882628,-0.59544045,-17.41875,23.1375,-25.275002,watch_1
15291606377530,6.8051877,-2.0925233,6.2327046,2.7097962,0.5882628,-0.59544045,-17.41875,23.1375,-25.275002,watch_1
15291601414718,6.8051877,-2.0925233,6.2327046,1.7336342,0.45509425,-0.4231766,-17.41875,23.1375,-25.275002,watch_1
15291625466801,6.8051877,-2.0925233,6.2327046,1.7336342,0.45509425,-0.4231766,-15.337501,21.54375,-24.45,watch_1
15291635466749,6.8051877,-2.0925233,6.2327046,1.7336342,0.45509425,-0.4231766,-16.44375,21.46875,-27.16875,watch_1
15291625451436,7.135397,-2.7960134,5.7541404,1.7336342,0.45509425,-0.4231766,-16.44375,21.46875,-27.16875,watch_1
15291620488676,7.135397,-2.7960134,5.7541404,0.64629495,0.29260424,-0.24602579,-16.44375,21.46875,-27.16875,watch_1
15291645466697,7.135397,-2.7960134,5.7541404,0.64629495,0.29260424,-0.24602579,-15.562501,19.556252,-24.993752,watch_1
15291644524457,7.379465,-2.6715865,4.892724,0.64629495,0.29260424,-0.24602579,-15.562501,19.556252,-24.993752,watch_1
15291639561697,7.379465,-2.6715865,4.892724,0.008552107,0.15332706,-0.07987057,-15.562501,19.556252,-24.993752,watch_1
15291655466645,7.379465,-2.6715865,4.892724,0.008552107,0.15332706,-0.07987057,-15.7875,20.550001,-26.437502,watch_1
15291665466593,7.379465,-2.6715865,4.892724,0.008552107,0.15332706,-0.07987057,-16.125,20.23125,-26.718752,watch_1
15291663567478,7.489535,-3.2219357,4.5338006,-0.07819069,0.0971275,0.06918044,-16.125,20.23125,-26.718752,watch_1
15291658604718,7.489535,-3.2219357,4.5338006,-0.07819069,0.0971275,0.06918044,-16.125,20.23125,-26.718752,watch_1
15291675466541,7.489535,-3.2219357,4.5338006,-0.07819069,0.0971275,0.06918044,-15.637501,21.825,-25.81875,watch_1
15291685466488,7.489535,-3.2219357,4.5338006,-0.07819069,0.0971275,0.06918044,-14.925,21.337502,-25.10625,watch_1
15291682640447,7.4177504,-3.1692936,4.9405804,-0.07819069,0.0971275,0.06918044,-14.925,21.337502,-25.10625,watch_1
15291677677686,7.4177504,-3.1692936,4.9405804,0.118507765,0.056810424,0.1754709,-14.925,21.337502,-25.10625,watch_1
15291695466436,7.4177504,-3.1692936,4.9405804,0.118507765,0.056810424,0.1754709,-15.562501,19.85625,-25.893751,watch_1
15291705466384,7.4177504,-3.1692936,4.9405804,0.118507765,0.056810424,0.1754709,-16.6875,21.69375,-25.63125,watch_1
15291701714457,7.6139617,-3.0640094,4.983651,0.118507765,0.056810424,0.1754709,-16.6875,21.69375,-25.63125,watch_1
15291696751697,7.6139617,-3.0640094,4.983651,0.13927718,-0.01282816,0.28542656,-16.6875,21.69375,-25.63125,watch_1
15291715466332,7.6139617,-3.0640094,4.983651,0.13927718,-0.01282816,0.28542656,-15.056251,21.45,-24.843752,watch_1
15291725466280,7.6139617,-3.0640094,4.983651,0.13927718,-0.01282816,0.28542656,-16.35,22.1625,-25.931252,watch_1
15291720787478,7.125826,-3.6717863,4.883153,-0.19547673,-0.06658426,0.40026915,-16.125,20.23125,-26.718752,watch_1
15291715824718,7.125826,-3.6717863,4.883153,-0.19547673,-0.06658426,0.40026915,-16.125,20.23125,-26.718752,watch_1
15291735466228,7.125826,-3.6717863,4.883153,-0.19547673,-0.06658426,0.40026915,-16.125,20.23125,-26.718752,watch_1
15291745466176,7.125826,-3.6717863,4.883153,-0.19547673,-0.06658426,0.40026915,-15.375001,21.581251,-26.04375,watch_1
15291734898676,7.537391,-4.499703,4.4859443,-0.4300488,-0.07391464,0.48701194,-15.375001,21.581251,-26.04375,watch_1
15291739861436,7.537391,-4.499703,4.4859443,-0.4300488,-0.07391464,0.48701194,-15.375001,21.581251,-26.04375,watch_1
15291755466124,7.537391,-4.499703,4.4859443,-0.4300488,-0.07391464,0.48701194,-15.225,22.556252,-24.243752,watch_1
15291765466072,7.537391,-4.499703,4.4859443,-0.4300488,-0.07391464,0.48701194,-13.856251,22.875,-24.54375,watch_1
15291758934457,7.834101,-5.2462635,4.1174498,-0.4300488,-0.07391464,0.48701194,-13.856251,22.875,-24.54375,watch_1
15291753971697,7.834101,-5.2462635,4.1174498,-0.25045455,-0.04703659,0.5346594,-13.856251,22.875,-24.54375,watch_1
15291775466020,7.834101,-5.2462635,4.1174498,-0.25045455,-0.04703659,0.5346594,-14.700001,22.087502,-25.575,watch_1
15291785465968,7.834101,-5.2462635,4.1174498,-0.25045455,-0.04703659,0.5346594,-14.55,21.9375,-24.393751,watch_1
15291773045707,7.5182486,-5.0548377,3.8398821,0.10140356,-0.03848448,0.5187769,-14.55,21.9375,-24.393751,watch_1
15291778008468,7.5182486,-5.0548377,3.8398821,0.10140356,-0.03848448,0.5187769,-14.55,21.9375,-24.393751,watch_1
15291795465916,7.5182486,-5.0548377,3.8398821,0.10140356,-0.03848448,0.5187769,-14.625001,21.375,-25.368752,watch_1
15291805465863,7.5182486,-5.0548377,3.8398821,0.10140356,-0.03848448,0.5187769,-15.50625,21.393751,-24.300001,watch_1
15291792118676,6.987042,-4.4135613,4.2275195,0.13194679,-0.04092794,0.44302967,-15.50625,21.393751,-24.300001,watch_1
15291797081436,6.987042,-4.4135613,4.2275195,0.13194679,-0.04092794,0.44302967,-15.50625,21.393751,-24.300001,watch_1
15291815465811,6.987042,-4.4135613,4.2275195,0.13194679,-0.04092794,0.44302967,-15.525001,22.518751,-24.562502,watch_1
15291816155447,7.0348988,-4.4662037,4.433302,0.13194679,-0.04092794,0.44302967,-15.750001,20.5125,-24.675001,watch_1
15291825465759,7.0348988,-4.4662037,4.433302,0.13194679,-0.04092794,0.44302967,-15.750001,20.5125,-24.675001,watch_1
15291835465707,7.0348988,-4.4662037,4.433302,-0.29199335,-0.07513637,0.319635,-13.5375,21.487501,-23.493752,watch_1
15291811192686,7.0348988,-4.4662037,4.433302,-0.29199335,-0.07513637,0.319635,-13.5375,21.487501,-23.493752,watch_1
15291835228468,7.355537,-5.188836,3.9595232,-0.8014546,-0.10567961,0.22678354,-13.5375,21.487501,-23.493752,watch_1
15291830265707,7.355537,-5.188836,3.9595232,-0.8014546,-0.10567961,0.22678354,-13.5375,21.487501,-23.493752,watch_1
15291845465655,7.355537,-5.188836,3.9595232,-0.8014546,-0.10567961,0.22678354,-14.475,22.66875,-24.750002,watch_1
15291855465603,7.355537,-5.188836,3.9595232,-0.8014546,-0.10567961,0.22678354,-14.325001,23.925001,-23.831251,watch_1
15291849308676,7.355537,-5.188836,3.9595232,-0.95172733,-0.10445788,0.18280129,-14.325001,23.925001,-23.831251,watch_1
15291865465551,7.355537,-5.188836,3.9595232,-0.95172733,-0.10445788,0.18280129,-14.775001,23.71875,-23.1375,watch_1
15291854271436,7.743174,-5.255835,3.3565319,-0.95172733,-0.10445788,0.18280129,-14.775001,23.71875,-23.1375,watch_1
15291875465499,7.743174,-5.255835,3.3565319,-0.95172733,-0.10445788,0.18280129,-13.012501,24.956251,-24.35625,watch_1
15291873345447,7.690532,-5.3132625,3.0789645,-0.95172733,-0.10445788,0.18280129,-13.012501,24.956251,-24.35625,watch_1
15291868382686,7.690532,-5.3132625,3.0789645,-0.8784236,-0.06780599,0.20234896,-13.012501,24.956251,-24.35625,watch_1
15291885465447,7.690532,-5.3132625,3.0789645,-0.8784236,-0.06780599,0.20234896,-14.343751,23.643751,-23.5125,watch_1
15291895465395,7.690532,-5.3132625,3.0789645,-0.8784236,-0.06780599,0.20234896,-13.25625,24.075,-24.16875,watch_1
15291892418468,7.4177504,-4.7629137,3.6819558,-0.85521066,-0.060475614,0.23900084,-14.56875,24.31875,-23.90625,watch_1
15291887455707,7.4177504,-4.7629137,3.6819558,-0.85521066,-0.060475614,0.23900084,-14.56875,24.31875,-23.90625,watch_1
15291905465343,7.4177504,-4.7629137,3.6819558,-0.85521066,-0.060475614,0.23900084,-14.56875,24.31875,-23.90625,watch_1
15291915465291,7.4177504,-4.7629137,3.6819558,-0.85521066,-0.060475614,0.23900084,-13.33125,24.6,-22.612501,watch_1
15291911492478,7.432107,-4.7007003,3.6580276,-1.0494657,-0.083688475,0.28542656,-13.33125,24.6,-22.612501,watch_1
15291906529718,7.432107,-4.7007003,3.6580276,-1.0494657,-0.083688475,0.28542656,-13.33125,24.6,-22.612501,watch_1
15291925465238,7.432107,-4.7007003,3.6580276,-1.0494657,-0.083688475,0.28542656,-13.762501,24.35625,-20.75625,watch_1
15291935465186,7.432107,-4.7007003,3.6580276,-1.0494657,-0.083688475,0.28542656,-12.50625,24.956251,-20.962502,watch_1
15291930565447,7.5900335,-5.4233327,3.045465,-1.0494657,-0.083688475,0.28542656,-12.50625,24.956251,-20.962502,watch_1
15291925602686,7.5900335,-5.4233327,3.045465,-1.1936297,-0.09590577,0.33918267,-12.50625,24.956251,-20.962502,watch_1
15291945465134,7.5900335,-5.4233327,3.045465,-1.1936297,-0.09590577,0.33918267,-13.5375,24.768751,-18.581251,watch_1
15291955465082,7.5900335,-5.4233327,3.045465,-1.1936297,-0.09590577,0.33918267,-12.243751,25.800001,-19.40625,watch_1
15291949639457,7.6713896,-5.7631135,2.6865416,-1.0396918,-0.06169734,0.36361727,-12.243751,25.800001,-19.40625,watch_1
15291944676697,7.6713896,-5.7631135,2.6865416,-1.0396918,-0.06169734,0.36361727,-12.243751,25.800001,-19.40625,watch_1
15291965465030,7.6713896,-5.7631135,2.6865416,-1.0396918,-0.06169734,0.36361727,-15.731251,24.2625,-21.2625,watch_1
15291975464978,7.6713896,-5.7631135,2.6865416,-1.0396918,-0.06169734,0.36361727,-13.8,26.41875,-18.487501,watch_1
15291968712478,7.1688967,-5.686543,2.8205397,-0.7648027,0.0006108648,0.38316494,-13.8,26.41875,-18.487501,watch_1
15291963749718,7.1688967,-5.686543,2.8205397,-0.7648027,0.0006108648,0.38316494,-13.8,26.41875,-18.487501,watch_1
15291985464926,7.1688967,-5.686543,2.8205397,-0.7648027,0.0006108648,0.38316494,-13.05,24.956251,-18.112501,watch_1
15291995464874,7.1688967,-5.686543,2.8205397,-0.7648027,0.0006108648,0.38316494,-11.700001,26.737501,-20.025002,watch_1
15291982823676,6.7669024,-5.1026945,3.6532419,-0.61452997,0.009162972,0.4308124,-11.700001,26.737501,-20.025002,watch_1
15291987786436,6.7669024,-5.1026945,3.6532419,-0.61452997,0.009162972,0.4308124,-11.700001,26.737501,-20.025002,watch_1
15292005464822,6.7669024,-5.1026945,3.6532419,-0.61452997,0.009162972,0.4308124,-12.750001,27.69375,-18.35625,watch_1
15292015464770,6.7669024,-5.1026945,3.6532419,-0.61452997,0.009162972,0.4308124,-12.187501,27.31875,-17.8125,watch_1
15292006859457,6.647261,-5.662615,3.6149569,-0.61452997,0.009162972,0.4308124,-12.187501,27.31875,-17.8125,watch_1
15292001896697,6.647261,-5.662615,3.6149569,-0.7367029,-0.031154104,0.48701194,-12.187501,27.31875,-17.8125,watch_1
15292025464718,6.647261,-5.662615,3.6149569,-0.7367029,-0.031154104,0.48701194,-12.39375,27.056252,-19.25625,watch_1
15292035464666,6.647261,-5.662615,3.6149569,-0.7367029,-0.031154104,0.48701194,-11.45625,28.725,-18.73125,watch_1
15292025902478,6.943971,-6.9451675,3.2321053,-0.89430606,-0.05070178,0.4723512,-11.45625,28.725,-18.73125,watch_1
15292020939718,6.943971,-6.9451675,3.2321053,-0.89430606,-0.05070178,0.4723512,-11.45625,28.725,-18.73125,watch_1
15292045464613,6.943971,-6.9451675,3.2321053,-0.89430606,-0.05070178,0.4723512,-11.775001,27.112501,-18.1875,watch_1
15292044976436,7.173682,-7.7156568,3.4666018,-0.89430606,-0.05070178,0.4723512,-11.775001,27.112501,-18.1875,watch_1
15292040013676,7.173682,-7.7156568,3.4666018,-0.87231493,-0.025045456,0.40515608,-11.775001,27.112501,-18.1875,watch_1
15292055464561,7.173682,-7.7156568,3.4666018,-0.87231493,-0.025045456,0.40515608,-11.83125,27.618752,-16.35,watch_1
15292065464509,7.173682,-7.7156568,3.4666018,-0.87231493,-0.025045456,0.40515608,-11.55,27.69375,-17.775002,watch_1
15292064049457,6.9583282,-7.4620175,3.7489548,-0.87231493,-0.025045456,0.40515608,-11.55,27.69375,-17.775002,watch_1
15292085464405,6.9583282,-7.4620175,3.7489548,-0.76235926,0.0030543238,0.3245219,-10.78125,28.875002,-15.187501,watch_1
15292075464457,6.9583282,-7.4620175,3.7489548,-0.76235926,0.0030543238,0.3245219,-10.78125,28.875002,-15.187501,watch_1
15292059086697,6.9583282,-7.4620175,3.7489548,-0.76235926,0.0030543238,0.3245219,-10.78125,28.875002,-15.187501,watch_1
15292083123468,6.647261,-7.409375,3.758526,-0.76235926,0.0030543238,0.3245219,-10.78125,28.875002,-15.187501,watch_1
15292078160707,6.647261,-7.409375,3.758526,-0.66706437,0.018936807,0.25121814,-10.78125,28.875002,-15.187501,watch_1
15292095464353,6.647261,-7.409375,3.758526,-0.66706437,0.018936807,0.25121814,-11.043751,29.1,-14.94375,watch_1
15292105464301,6.647261,-7.409375,3.758526,-0.66706437,0.018936807,0.25121814,-9.618751,28.612501,-15.900001,watch_1
15292102196436,6.1830535,-7.198807,3.8398821,-0.66706437,0.018936807,0.25121814,-9.618751,28.612501,-15.900001,watch_1
15292097233676,6.1830535,-7.198807,3.8398821,-0.47647452,-0.016493348,0.22556181,-9.618751,28.612501,-15.900001,watch_1
15292115464249,6.1830535,-7.198807,3.8398821,-0.47647452,-0.016493348,0.22556181,-9.637501,28.143751,-14.118751,watch_1
15292125464197,6.1830535,-7.198807,3.8398821,-0.47647452,-0.016493348,0.22556181,-11.45625,29.493752,-16.050001,watch_1
15292121270447,6.2213387,-7.55773,3.4809587,-0.47647452,-0.016493348,0.22556181,-11.45625,29.493752,-16.050001,watch_1
15292116307686,6.2213387,-7.55773,3.4809587,-0.4544834,-0.103236146,0.2414443,-11.45625,29.493752,-16.050001,watch_1
15292135464145,6.2213387,-7.55773,3.4809587,-0.4544834,-0.103236146,0.2414443,-11.75625,29.437502,-14.775001,watch_1
15292145464093,6.2213387,-7.55773,3.4809587,-0.4544834,-0.103236146,0.2414443,-10.59375,29.00625,-14.306251,watch_1
15292140343468,6.7334027,-8.6345005,3.4666018,-0.5546652,-0.1386663,0.21823144,-10.59375,29.00625,-14.306251,watch_1
15292135380707,6.7334027,-8.6345005,3.4666018,-0.5546652,-0.1386663,0.21823144,-10.59375,29.00625,-14.306251,watch_1
15292155464041,6.7334027,-8.6345005,3.4666018,-0.5546652,-0.1386663,0.21823144,-10.9125,30.2625,-15.056251,watch_1
15292165463988,6.7334027,-8.6345005,3.4666018,-0.5546652,-0.1386663,0.21823144,-10.462501,30.000002,-13.81875,watch_1
15292159417478,7.2119675,-9.227921,3.4761732,-0.61208653,-0.13988803,0.11071924,-10.462501,30.000002,-13.81875,watch_1
15292154454718,7.2119675,-9.227921,3.4761732,-0.61208653,-0.13988803,0.11071924,-10.462501,30.000002,-13.81875,watch_1
15292175463936,7.2119675,-9.227921,3.4761732,-0.61208653,-0.13988803,0.11071924,-8.8125,28.63125,-12.468751,watch_1
15292185463884,7.2119675,-9.227921,3.4761732,-0.61208653,-0.13988803,0.11071924,-10.293751,28.743752,-13.2375,watch_1
15292178490447,6.8339014,-9.017352,3.2129626,-0.61208653,-0.13988803,0.11071924,-10.293751,28.743752,-13.2375,watch_1
15292173527686,6.8339014,-9.017352,3.2129626,-0.5082395,-0.14844014,-0.029779658,-10.293751,28.743752,-13.2375,watch_1
15292195463832,6.8339014,-9.017352,3.2129626,-0.5082395,-0.14844014,-0.029779658,-10.425,28.837502,-12.093751,watch_1
15292205463780,6.8339014,-9.017352,3.2129626,-0.5082395,-0.14844014,-0.029779658,-10.875,28.612501,-10.668751,watch_1
15292197564457,6.8482585,-8.99821,2.533401,-0.3262018,-0.17776164,-0.13973531,-10.931251,28.687502,-14.75625,watch_1
15292215463728,6.8482585,-8.99821,2.533401,-0.3262018,-0.17776164,-0.13973531,-10.931251,28.687502,-14.75625,watch_1
15292192601697,6.8482585,-8.99821,2.533401,-0.3262018,-0.17776164,-0.13973531,-10.931251,28.687502,-14.75625,watch_1
15292225463676,6.8482585,-8.99821,2.533401,-0.3262018,-0.17776164,-0.13973531,-9.88125,29.94375,-13.593751,watch_1
15292216607478,6.9678993,-9.237492,1.7006987,-0.3262018,-0.17776164,-0.13973531,-9.88125,29.94375,-13.593751,watch_1
15292211644718,6.9678993,-9.237492,1.7006987,-0.0073303776,-0.18875721,-0.23258677,-9.88125,29.94375,-13.593751,watch_1
15292235463624,6.9678993,-9.237492,1.7006987,-0.0073303776,-0.18875721,-0.23258677,-11.75625,27.54375,-12.4125,watch_1
15292245463572,6.7429743,-8.356933,1.265205,-0.0073303776,-0.18875721,-0.23258677,-11.793751,28.66875,-12.225,watch_1
15292235680447,6.7429743,-8.356933,1.265205,-0.0073303776,-0.18875721,-0.23258677,-11.793751,28.66875,-12.225,watch_1
15292230717686,6.7429743,-8.356933,1.265205,0.5009091,-0.12767074,-0.3620901,-11.793751,28.66875,-12.225,watch_1
15292255463520,6.7429743,-8.356933,1.265205,0.5009091,-0.12767074,-0.3620901,-11.00625,29.081251,-13.200001,watch_1
15292254753468,6.4271216,-6.6771717,1.8969102,0.5009091,-0.12767074,-0.3620901,-11.00625,29.081251,-13.200001,watch_1
15292249790707,6.4271216,-6.6771717,1.8969102,0.8185588,-0.037262753,-0.49525863,-11.00625,29.081251,-13.200001,watch_1
15292265463468,6.4271216,-6.6771717,1.8969102,0.8185588,-0.037262753,-0.49525863,-11.64375,27.768751,-15.187501,watch_1
15292275463416,6.4271216,-6.6771717,1.8969102,0.8185588,-0.037262753,-0.49525863,-11.793751,30.2625,-14.2875,watch_1
15292268864718,6.4271216,-6.6771717,1.8969102,0.7403681,0.011606431,-0.6394227,-12.88125,28.575,-14.812501,watch_1
15292285463363,6.4271216,-6.6771717,1.8969102,0.7403681,0.011606431,-0.6394227,-12.88125,28.575,-14.812501,watch_1
15292273827478,6.541977,-7.198807,2.318047,0.7403681,0.011606431,-0.6394227,-12.88125,28.575,-14.812501,watch_1
15292295463311,6.541977,-7.198807,2.318047,0.7403681,0.011606431,-0.6394227,-12.712501,27.618752,-15.281251,watch_1
15292292900447,6.795616,-7.8352976,1.8634106,0.7892373,0.031154104,-0.7958041,-12.712501,27.618752,-15.281251,watch_1
15292287937686,6.795616,-7.8352976,1.8634106,0.7892373,0.031154104,-0.7958041,-12.712501,27.618752,-15.281251,watch_1
15292305463259,6.795616,-7.8352976,1.8634106,0.7892373,0.031154104,-0.7958041,-12.918751,28.612501,-16.143751,watch_1
15292315463207,6.795616,-7.8352976,1.8634106,0.7892373,0.031154104,-0.7958041,-11.981251,27.45,-15.468751,watch_1
15292311974457,6.862615,-7.237092,2.0691934,0.7892373,0.031154104,-0.7958041,-11.981251,27.45,-15.468751,watch_1
15292307011697,6.862615,-7.237092,2.0691934,1.3316852,0.102014415,-0.8202387,-11.981251,27.45,-15.468751,watch_1
15292325463155,6.862615,-7.237092,2.0691934,1.3316852,0.102014415,-0.8202387,-11.868751,28.7625,-17.04375,watch_1
15292335463103,6.862615,-7.237092,2.0691934,1.3316852,0.102014415,-0.8202387,-12.76875,26.2875,-18.65625,watch_1
15292331047478,7.2119675,-4.853841,3.2799616,1.3316852,0.102014415,-0.8202387,-12.76875,26.2875,-18.65625,watch_1
15292326084718,7.2119675,-4.853841,3.2799616,1.5625921,0.19486587,-0.72372204,-14.325001,25.800001,-19.06875,watch_1
15292345463051,7.2119675,-4.853841,3.2799616,1.5625921,0.19486587,-0.72372204,-14.325001,25.800001,-19.06875,watch_1
15292350121436,7.0731835,-5.18405,2.9353952,1.3182462,0.29749113,-0.5416843,-15.375001,24.243752,-18.75,watch_1
15292355462999,7.0731835,-5.18405,2.9353952,1.3182462,0.29749113,-0.5416843,-15.375001,24.243752,-18.75,watch_1
15292345158676,7.0731835,-5.18405,2.9353952,1.3182462,0.29749113,-0.5416843,-15.375001,24.243752,-18.75,watch_1
15292365462947,7.0731835,-5.18405,2.9353952,1.3182462,0.29749113,-0.5416843,-12.39375,25.95,-20.60625,watch_1
15292375462895,7.0731835,-5.18405,2.9353952,1.3182462,0.29749113,-0.5416843,-12.656251,25.087502,-21.431252,watch_1
15292364231697,6.2883377,-4.298706,2.9976087,1.4795145,0.37201664,-0.42073312,-12.656251,25.087502,-21.431252,watch_1
15292369194457,6.2883377,-4.298706,2.9976087,1.4795145,0.37201664,-0.42073312,-12.656251,25.087502,-21.431252,watch_1
15292385462843,6.2883377,-4.298706,2.9976087,1.4795145,0.37201664,-0.42073312,-14.19375,24.2625,-19.2,watch_1
15292395462791,6.2883377,-4.298706,2.9976087,1.4795145,0.37201664,-0.42073312,-14.156251,24.88125,-21.28125,watch_1
15292383305707,6.3888364,-3.5808592,3.5144582,1.703091,0.34636033,-0.3046688,-14.156251,24.88125,-21.28125,watch_1
15292388268468,6.3888364,-3.5808592,3.5144582,1.703091,0.34636033,-0.3046688,-14.156251,24.88125,-21.28125,watch_1
15292405462738,6.3888364,-3.5808592,3.5144582,1.703091,0.34636033,-0.3046688,-14.85,22.987501,-22.35,watch_1
15292415462686,6.3888364,-3.5808592,3.5144582,1.703091,0.34636033,-0.3046688,-14.175,23.79375,-23.362501,watch_1
15292407311436,6.4558353,-2.4801607,4.471587,1.5454879,0.2791652,-0.16050471,-14.175,23.79375,-23.362501,watch_1
15292402348676,6.4558353,-2.4801607,4.471587,1.5454879,0.2791652,-0.16050471,-14.175,23.79375,-23.362501,watch_1
15292425462634,6.4558353,-2.4801607,4.471587,1.5454879,0.2791652,-0.16050471,-12.69375,25.125002,-23.75625,watch_1
15292435462582,6.5754766,-2.1020947,5.285147,0.39828384,0.19853105,0.042302385,-15.50625,22.48125,-22.518751,watch_1
15292426384457,6.5754766,-2.1020947,5.285147,0.39828384,0.19853105,0.042302385,-15.50625,22.48125,-22.518751,watch_1
15292421421697,6.5754766,-2.1020947,5.285147,0.39828384,0.19853105,0.042302385,-15.50625,22.48125,-22.518751,watch_1
15292445462530,6.5754766,-2.1020947,5.285147,0.39828384,0.19853105,0.042302385,-13.63125,24.562502,-23.081251,watch_1
15292440495707,5.8337016,-2.5710878,4.3471603,-0.80389804,0.09957096,0.33429575,-13.63125,24.562502,-23.081251,watch_1
15292445458468,5.8337016,-2.5710878,4.3471603,-0.80389804,0.09957096,0.33429575,-13.63125,24.562502,-23.081251,watch_1
15292455462478,5.8337016,-2.5710878,4.3471603,-0.80389804,0.09957096,0.33429575,-13.556251,25.275002,-22.706251,watch_1
15292465462426,5.8337016,-2.5710878,4.3471603,-0.80389804,0.09957096,0.33429575,-13.556251,25.275002,-22.706251,watch_1
15292459568676,5.8337016,-2.5710878,4.3471603,-1.2034036,0.051923506,0.62751085,-12.093751,24.900002,-22.368752,watch_1
15292475462374,5.8337016,-2.5710878,4.3471603,-1.2034036,0.051923506,0.62751085,-12.093751,24.900002,-22.368752,watch_1
15292464531436,6.111269,-2.7098715,3.8781674,-1.2034036,0.051923506,0.62751085,-12.093751,24.900002,-22.368752,watch_1
15292485462322,6.111269,-2.7098715,3.8781674,-1.2034036,0.051923506,0.62751085,-12.375001,24.825,-21.075,watch_1
15292483605447,6.5611196,-3.0592237,4.069593,-1.2302817,0.04703659,0.7948878,-12.375001,24.825,-21.075,watch_1
15292478642686,6.5611196,-3.0592237,4.069593,-1.2302817,0.04703659,0.7948878,-12.375001,24.825,-21.075,watch_1
15292495462270,6.5611196,-3.0592237,4.069593,-1.2302817,0.04703659,0.7948878,-13.106251,26.2875,-21.16875,watch_1
15292505462218,6.5611196,-3.0592237,4.069593,-1.2302817,0.04703659,0.7948878,-13.668751,28.237501,-22.725,watch_1
15292502678468,6.5898337,-4.0067816,4.241876,-1.2632684,0.0018325944,0.87185675,-13.668751,28.237501,-22.725,watch_1
15292497715707,6.5898337,-4.0067816,4.241876,-1.2632684,0.0018325944,0.87185675,-13.668751,28.237501,-22.725,watch_1
15292515462166,6.5898337,-4.0067816,4.241876,-1.2632684,0.0018325944,0.87185675,-13.687501,27.45,-19.3125,watch_1
15292525462113,6.5898337,-4.0067816,4.241876,-1.2632684,0.0018325944,0.87185675,-11.64375,28.893751,-21.69375,watch_1
15292521752478,6.1447687,-4.820341,3.8255253,-1.2632684,0.0018325944,0.87185675,-11.64375,28.893751,-21.69375,watch_1
15292516789718,6.1447687,-4.820341,3.8255253,-1.4611886,-0.126449,0.86819154,-11.64375,28.893751,-21.69375,watch_1
15292535462061,6.1447687,-4.820341,3.8255253,-1.4611886,-0.126449,0.86819154,-10.950001,27.6375,-17.85,watch_1
15292545462009,6.1447687,-4.820341,3.8255253,-1.4611886,-0.126449,0.86819154,-11.25,27.581251,-17.4375,watch_1
15292540825447,6.1064835,-6.2033925,3.423531,-1.4611886,-0.126449,0.86819154,-11.25,27.581251,-17.4375,watch_1
15292535862686,6.1064835,-6.2033925,3.423531,-1.6701043,-0.22052218,0.88896096,-11.25,27.581251,-17.4375,watch_1
15292555461957,6.1064835,-6.2033925,3.423531,-1.6701043,-0.22052218,0.88896096,-9.056251,28.425001,-16.6875,watch_1
15292565461905,6.1064835,-6.2033925,3.423531,-1.6701043,-0.22052218,0.88896096,-10.556251,28.2,-15.39375,watch_1
15292559899457,6.613762,-7.820941,3.0598218,-1.7739513,-0.28038692,0.81810063,-10.44375,29.212502,-15.918751,watch_1
15292575461853,6.613762,-7.820941,3.0598218,-1.7739513,-0.28038692,0.81810063,-10.44375,29.212502,-15.918751,watch_1
15292554936697,6.613762,-7.820941,3.0598218,-1.7739513,-0.28038692,0.81810063,-10.44375,29.212502,-15.918751,watch_1
15292585461801,6.613762,-7.820941,3.0598218,-1.7739513,-0.28038692,0.81810063,-9.150001,29.906252,-14.6625,watch_1
15292578942478,6.74776,-8.878569,2.7822545,-1.7153083,-0.31459537,0.67638004,-9.150001,29.906252,-14.6625,watch_1
15292573979718,6.74776,-8.878569,2.7822545,-1.7153083,-0.31459537,0.67638004,-9.150001,29.906252,-14.6625,watch_1
15292595461749,6.74776,-8.878569,2.7822545,-1.7153083,-0.31459537,0.67638004,-8.681251,31.5375,-15.20625,watch_1
15292605461697,6.4558353,-9.945767,2.1026928,-1.5076143,-0.32925612,0.55298537,-9.900001,29.625002,-12.843751,watch_1
15292598015447,6.4558353,-9.945767,2.1026928,-1.5076143,-0.32925612,0.55298537,-9.900001,29.625002,-12.843751,watch_1
15292593052686,6.4558353,-9.945767,2.1026928,-1.5076143,-0.32925612,0.55298537,-9.900001,29.625002,-12.843751,watch_1
15292615461645,6.4558353,-9.945767,2.1026928,-1.5076143,-0.32925612,0.55298537,-9.543751,30.431252,-15.20625,watch_1
15292625461593,6.6041903,-10.759327,1.3130615,-1.5076143,-0.32925612,0.55298537,-9.918751,29.175001,-11.493751,watch_1
15292612126697,6.6041903,-10.759327,1.3130615,-1.2559379,-0.3084867,0.38927358,-9.918751,29.175001,-11.493751,watch_1
15292635461541,6.6041903,-10.759327,1.3130615,-1.2559379,-0.3084867,0.38927358,-9.76875,30.281252,-9.84375,watch_1
15292617089457,6.6041903,-10.759327,1.3130615,-1.2559379,-0.3084867,0.38927358,-9.76875,30.281252,-9.84375,watch_1
15292645461488,6.6041903,-10.759327,1.3130615,-0.87353665,-0.2083049,0.1876882,-9.7875,28.3875,-7.4625,watch_1
15292631199718,6.6041903,-10.759327,1.3130615,-0.87353665,-0.2083049,0.1876882,-9.7875,28.3875,-7.4625,watch_1
15292636162478,6.7238317,-11.008181,1.3082758,-0.87353665,-0.2083049,0.1876882,-9.7875,28.3875,-7.4625,watch_1
15292655461436,6.7238317,-11.008181,1.3082758,-0.87353665,-0.2083049,0.1876882,-7.51875,26.94375,-5.025,watch_1
15292655236436,7.149754,-11.520245,0.25543383,-0.87353665,-0.2083049,0.1876882,-7.51875,26.94375,-5.025,watch_1
15292650273676,7.149754,-11.520245,0.25543383,-0.5742129,-0.089797124,-0.037110034,-7.51875,26.94375,-5.025,watch_1
15292665461384,7.149754,-11.520245,0.25543383,-0.5742129,-0.089797124,-0.037110034,-9.637501,30.000002,-8.625,watch_1
15292675461332,7.149754,-11.520245,0.25543383,-0.5742129,-0.089797124,-0.037110034,-9.3,30.018751,-7.5750003,watch_1
15292669346697,7.015756,-10.591829,-0.2757728,-0.31642795,0.07880156,-0.3572032,-9.3,30.018751,-7.5750003,watch_1
15292674309457,7.015756,-10.591829,-0.2757728,-0.31642795,0.07880156,-0.3572032,-9.3,30.018751,-7.5750003,watch_1
15292685461280,7.015756,-10.591829,-0.2757728,-0.31642795,0.07880156,-0.3572032,-8.625,29.550001,-7.74375,watch_1
15292695461228,7.015756,-10.591829,-0.2757728,-0.31642795,0.07880156,-0.3572032,-10.087501,31.85625,-11.775001,watch_1
15292693383468,6.4701924,-9.304491,-0.098703936,-0.33353218,0.2498437,-0.7176134,-10.087501,31.85625,-11.775001,watch_1
15292688420707,6.4701924,-9.304491,-0.098703936,-0.33353218,0.2498437,-0.7176134,-10.087501,31.5375,-10.275001,watch_1
15292705461176,6.4701924,-9.304491,-0.098703936,-0.33353218,0.2498437,-0.7176134,-10.087501,31.5375,-10.275001,watch_1
15292715461124,6.4701924,-9.304491,-0.098703936,-0.33353218,0.2498437,-0.7176134,-11.625,31.2,-10.725,watch_1
15292712456436,6.74776,-10.022338,0.13100705,-0.33353218,0.2498437,-0.7176134,-11.625,31.2,-10.725,watch_1
15292707493676,6.74776,-10.022338,0.13100705,-0.32498005,0.35857764,-0.9863939,-9.993751,30.975,-10.06875,watch_1
15292725461072,6.74776,-10.022338,0.13100705,-0.32498005,0.35857764,-0.9863939,-9.993751,30.975,-10.06875,watch_1
15292735461020,6.74776,-10.022338,0.13100705,-0.32498005,0.35857764,-0.9863939,-11.6625,29.325,-9.375,watch_1
15292731530447,6.8578296,-10.314262,1.2843475,0.21380267,0.3915643,-1.1818706,-12.4875,31.2,-9.225,watch_1
15292726567686,6.8578296,-10.314262,1.2843475,0.21380267,0.3915643,-1.1818706,-12.4875,31.2,-9.225,watch_1
15292745460968,6.8578296,-10.314262,1.2843475,0.21380267,0.3915643,-1.1818706,-12.4875,31.2,-9.225,watch_1
15292755460916,6.8578296,-10.314262,1.2843475,0.21380267,0.3915643,-1.1818706,-13.9125,29.493752,-10.81875,watch_1
15292750603468,7.972885,-9.11785,2.7678976,0.21380267,0.3915643,-1.1818706,-13.9125,29.493752,-10.81875,watch_1
15292745640707,7.972885,-9.11785,2.7678976,0.97371846,0.34025168,-1.2967132,-13.9125,29.493752,-10.81875,watch_1
15292765460863,7.972885,-9.11785,2.7678976,0.97371846,0.34025168,-1.2967132,-12.262501,29.41875,-10.6125,watch_1
15292775460811,7.972885,-9.11785,2.7678976,0.97371846,0.34025168,-1.2967132,-13.218751,28.237501,-14.38125,watch_1
15292769646436,7.580462,-8.213364,1.925624,0.97371846,0.34025168,-1.2967132,-13.218751,28.237501,-14.38125,watch_1
15292764683676,7.580462,-8.213364,1.925624,1.503949,0.3536907,-1.324813,-13.218751,28.237501,-14.38125,watch_1
15292785460759,7.580462,-8.213364,1.925624,1.503949,0.3536907,-1.324813,-14.3625,28.66875,-14.56875,watch_1
15292795460707,7.580462,-8.213364,1.925624,1.503949,0.3536907,-1.324813,-14.26875,25.406252,-13.650001,watch_1
15292783757686,6.7381887,-7.021738,2.1314068,1.9730933,0.46975502,-1.3700169,-14.26875,25.406252,-13.650001,watch_1
15292788720447,6.7381887,-7.021738,2.1314068,1.9730933,0.46975502,-1.3700169,-14.26875,25.406252,-13.650001,watch_1
15292805460655,6.7381887,-7.021738,2.1314068,1.9730933,0.46975502,-1.3700169,-15.562501,27.225,-14.26875,watch_1
15292807793468,5.800202,-4.1407795,3.6723845,1.9730933,0.46975502,-1.3700169,-15.6,27.2625,-15.88125,watch_1
15292815460603,5.800202,-4.1407795,3.6723845,1.9730933,0.46975502,-1.3700169,-15.6,27.2625,-15.88125,watch_1
15292802830707,5.800202,-4.1407795,3.6723845,1.6969824,0.5381719,-1.487303,-15.6,27.2625,-15.88125,watch_1
15292825460551,5.800202,-4.1407795,3.6723845,1.6969824,0.5381719,-1.487303,-17.925001,26.868752,-18.0,watch_1
15292835460499,5.800202,-4.1407795,3.6723845,1.6969824,0.5381719,-1.487303,-17.268751,25.968752,-18.2625,watch_1
15292821904718,7.312466,-4.3609195,3.0933216,0.87475836,0.4331031,-1.42866,-17.268751,25.968752,-18.2625,watch_1
15292826867478,7.312466,-4.3609195,3.0933216,0.87475836,0.4331031,-1.42866,-17.268751,25.968752,-18.2625,watch_1
15292845460447,7.312466,-4.3609195,3.0933216,0.87475836,0.4331031,-1.42866,-16.087502,25.987501,-18.28125,watch_1
15292855460395,7.623533,-4.7676992,3.0023942,0.96883154,0.3500255,-1.1513274,-17.306252,24.431252,-19.275002,watch_1
15292845940447,7.623533,-4.7676992,3.0023942,0.96883154,0.3500255,-1.1513274,-17.306252,24.431252,-19.275002,watch_1
15292840977686,7.623533,-4.7676992,3.0023942,0.96883154,0.3500255,-1.1513274,-17.306252,24.431252,-19.275002,watch_1
15292865460343,7.623533,-4.7676992,3.0023942,0.96883154,0.3500255,-1.1513274,-17.8125,26.775002,-19.85625,watch_1
15292865013468,6.8099732,-3.245864,3.571886,1.1007783,0.2828304,-0.80313444,-17.8125,26.775002,-19.85625,watch_1
15292860050707,6.8099732,-3.245864,3.571886,1.1007783,0.2828304,-0.80313444,-17.8125,26.775002,-19.85625,watch_1
15292885460238,6.8099732,-3.245864,3.571886,1.1007783,0.2828304,-0.80313444,-16.1625,24.16875,-19.556252,watch_1
15292875460291,6.8099732,-3.245864,3.571886,1.1007783,0.2828304,-0.80313444,-16.1625,24.16875,-19.556252,watch_1
15292879124718,5.8432727,-2.6907291,4.1174498,0.45203993,0.23029602,-0.5807797,-16.1625,24.16875,-19.556252,watch_1
15292884087478,5.8432727,-2.6907291,4.1174498,0.45203993,0.23029602,-0.5807797,-16.1625,24.16875,-19.556252,watch_1
15292895460186,5.8432727,-2.6907291,4.1174498,0.45203993,0.23029602,-0.5807797,-17.212502,25.44375,-19.66875,watch_1
15292905460134,5.8432727,-2.6907291,4.1174498,0.45203993,0.23029602,-0.5807797,-17.475,24.750002,-21.50625,watch_1
15292903160447,5.4891353,-2.7481568,4.71087,0.45203993,0.23029602,-0.5807797,-17.475,24.750002,-21.50625,watch_1
15292898197686,5.4891353,-2.7481568,4.71087,-0.6988293,0.13500112,-0.6186533,-17.587502,24.35625,-17.85,watch_1
15292915460082,5.4891353,-2.7481568,4.71087,-0.6988293,0.13500112,-0.6186533,-17.587502,24.35625,-17.85,watch_1
15292925460030,5.4891353,-2.7481568,4.71087,-0.6988293,0.13500112,-0.6186533,-17.831251,23.475,-17.643751,watch_1
15292922234457,5.8432727,-3.6430724,3.8398821,-0.6988293,0.13500112,-0.6186533,-17.831251,23.475,-17.643751,watch_1
15292917271697,5.8432727,-3.6430724,3.8398821,-2.1563528,0.021380268,-0.8251256,-17.831251,23.475,-17.643751,watch_1
15292935459978,5.8432727,-3.6430724,3.8398821,-2.1563528,0.021380268,-0.8251256,-18.675001,23.925001,-17.362501,watch_1
15292945459926,5.8432727,-3.6430724,3.8398821,-2.1563528,0.021380268,-0.8251256,-18.28125,25.7625,-14.868751,watch_1
15292941307478,6.3457656,-3.8967116,1.7964116,-3.1606143,0.027488915,-1.0743585,-19.743752,25.81875,-13.743751,watch_1
15292936344718,6.3457656,-3.8967116,1.7964116,-3.1606143,0.027488915,-1.0743585,-19.743752,25.81875,-13.743751,watch_1
15292955459874,6.3457656,-3.8967116,1.7964116,-3.1606143,0.027488915,-1.0743585,-19.743752,25.81875,-13.743751,watch_1
15292965459822,6.3457656,-3.8967116,1.7964116,-3.1606143,0.027488915,-1.0743585,-18.487501,26.41875,-13.950001,watch_1
15292960350447,4.962714,-3.1932218,0.76271224,-3.1606143,0.027488915,-1.0743585,-18.487501,26.41875,-13.950001,watch_1
15292955387686,4.962714,-3.1932218,0.76271224,-3.3218827,0.16676609,-1.2783873,-19.575,27.562502,-14.625001,watch_1
15292975459770,4.962714,-3.1932218,0.76271224,-3.3218827,0.16676609,-1.2783873,-19.575,27.562502,-14.625001,watch_1
15292985459718,2.7469604,-3.5090744,-0.1274178,-3.3218827,0.16676609,-1.2783873,-19.81875,27.45,-10.856251,watch_1
15292979424457,2.7469604,-3.5090744,-0.1274178,-3.3218827,0.16676609,-1.2783873,-19.81875,27.45,-10.856251,watch_1
15292974461697,2.7469604,-3.5090744,-0.1274178,-3.2058184,0.32314748,-1.4726423,-19.81875,27.45,-10.856251,watch_1
15292995459666,2.7469604,-3.5090744,-0.1274178,-3.2058184,0.32314748,-1.4726423,-21.206251,25.725,-11.71875,watch_1
15293005459613,2.7469604,-3.5090744,-0.1274178,-3.2058184,0.32314748,-1.4726423,-22.06875,25.875002,-10.368751,watch_1
15292998497478,3.2638102,-4.9926243,-0.6873383,-3.2058184,0.32314748,-1.4726423,-22.06875,25.875002,-10.368751,watch_1
15292993534718,3.2638102,-4.9926243,-0.6873383,-2.8857253,0.573602,-1.7169882,-21.31875,27.075,-9.243751,watch_1
15293015459561,3.2638102,-4.9926243,-0.6873383,-2.8857253,0.573602,-1.7169882,-21.31875,27.075,-9.243751,watch_1
15293025459509,3.2638102,-4.9926243,-0.6873383,-2.8857253,0.573602,-1.7169882,-20.737501,25.275002,-7.4062505,watch_1
15293017571436,6.3744793,-5.7200427,-1.0749756,-2.8857253,0.573602,-1.7169882,-20.737501,25.275002,-7.4062505,watch_1
15293012608676,6.3744793,-5.7200427,-1.0749756,-2.317621,0.9364557,-2.0211987,-20.737501,25.275002,-7.4062505,watch_1
15293035459457,6.3744793,-5.7200427,-1.0749756,-2.317621,0.9364557,-2.0211987,-23.41875,23.775002,-6.6937504,watch_1
15293045459405,6.3744793,-5.7200427,-1.0749756,-2.317621,0.9364557,-2.0211987,-24.69375,21.618752,-6.0375004,watch_1
15293036644457,5.1876397,-6.3278193,-0.9409775,-1.3072506,1.3628393,-2.1445935,-24.69375,21.618752,-6.0375004,watch_1
15293031681697,5.1876397,-6.3278193,-0.9409775,-1.3072506,1.3628393,-2.1445935,-24.69375,21.618752,-6.0375004,watch_1
15293055459353,5.1876397,-6.3278193,-0.9409775,-1.3072506,1.3628393,-2.1445935,-24.656252,22.21875,-7.70625,watch_1
15293065459301,5.1876397,-6.3278193,-0.9409775,-1.3072506,1.3628393,-2.1445935,-24.4125,21.675001,-7.33125,watch_1
15293055718468,2.507678,-4.8442693,-0.4528417,0.09407318,1.5595378,-2.200793,-24.4125,21.675001,-7.33125,watch_1
15293050755707,2.507678,-4.8442693,-0.4528417,0.09407318,1.5595378,-2.200793,-24.4125,21.675001,-7.33125,watch_1
15293075459249,2.507678,-4.8442693,-0.4528417,0.09407318,1.5595378,-2.200793,-26.41875,21.618752,-9.731251,watch_1
15293074791436,0.66999036,-3.121437,-0.9553344,0.8271109,1.594968,-2.296088,-26.41875,21.618752,-9.731251,watch_1
15293069828676,0.66999036,-3.121437,-0.9553344,0.8271109,1.594968,-2.296088,-27.187502,19.03125,-12.468751,watch_1
15293085459197,0.66999036,-3.121437,-0.9553344,0.8271109,1.594968,-2.296088,-27.187502,19.03125,-12.468751,watch_1
15293095459145,0.66999036,-3.121437,-0.9553344,0.8271109,1.594968,-2.296088,-27.112501,19.743752,-12.093751,watch_1
15293093865447,1.9812572,-3.231507,-1.8023937,0.8271109,1.594968,-2.296088,-27.112501,19.743752,-12.093751,watch_1
15293088902686,1.9812572,-3.231507,-1.8023937,0.49235702,1.874744,-2.3474007,-27.35625,18.54375,-10.25625,watch_1
15293105459093,1.9812572,-3.231507,-1.8023937,0.49235702,1.874744,-2.3474007,-27.35625,18.54375,-10.25625,watch_1
15293115459041,1.9812572,-3.231507,-1.8023937,0.49235702,1.874744,-2.3474007,-27.093752,17.5125,-13.6125,watch_1
15293107975707,1.9812572,-3.231507,-1.8023937,0.34941465,2.3475533,-2.2765403,-27.093752,17.5125,-13.6125,watch_1
15293112938468,3.7710886,-3.9349968,-1.1371889,0.34941465,2.3475533,-2.2765403,-27.018751,16.66875,-13.387501,watch_1
15293125458988,3.7710886,-3.9349968,-1.1371889,0.34941465,2.3475533,-2.2765403,-27.018751,16.66875,-13.387501,watch_1
15293135458936,3.7710886,-3.9349968,-1.1371889,0.34941465,2.3475533,-2.2765403,-29.19375,16.44375,-15.937501,watch_1
15293131981436,3.804588,-3.987639,0.76749784,0.77457654,2.7763805,-2.1983497,-29.19375,16.44375,-15.937501,watch_1
15293127018676,3.804588,-3.987639,0.76749784,0.77457654,2.7763805,-2.1983497,-29.19375,16.44375,-15.937501,watch_1
15293145458884,3.804588,-3.987639,0.76749784,0.77457654,2.7763805,-2.1983497,-27.243752,16.40625,-15.562501,watch_1
15293155458832,3.804588,-3.987639,0.76749784,0.77457654,2.7763805,-2.1983497,-28.331251,15.187501,-18.0375,watch_1
15293151055447,1.8424734,-2.9682965,1.6959131,0.77457654,2.7763805,-2.1983497,-28.331251,15.187501,-18.0375,watch_1
15293146092686,1.8424734,-2.9682965,1.6959131,1.1716386,3.004844,-2.1714716,-28.331251,15.187501,-18.0375,watch_1
15293165458780,1.8424734,-2.9682965,1.6959131,1.1716386,3.004844,-2.1714716,-26.681252,13.856251,-18.45,watch_1
15293175458728,1.8424734,-2.9682965,1.6959131,1.1716386,3.004844,-2.1714716,-28.781252,12.7875,-20.75625,watch_1
15293170128468,2.5842485,-1.302892,1.1551352,1.1716386,3.004844,-2.1714716,-28.781252,12.7875,-20.75625,watch_1
15293165165707,2.5842485,-1.302892,1.1551352,0.9602794,3.0280566,-2.1238241,-28.781252,12.7875,-20.75625,watch_1
15293185458676,2.5842485,-1.302892,1.1551352,0.9602794,3.0280566,-2.1238241,-28.66875,11.418751,-22.21875,watch_1
15293195458624,2.5842485,-1.302892,1.1551352,0.9602794,3.0280566,-2.1238241,-28.29375,12.356251,-23.56875,watch_1
15293184239718,2.5842485,-1.302892,1.1551352,0.44715303,3.3481498,-1.8611523,-28.29375,12.356251,-23.56875,watch_1
15293189202478,4.709075,-1.5469599,1.0067801,0.44715303,3.3481498,-1.8611523,-28.29375,12.356251,-23.56875,watch_1
15293205458572,4.709075,-1.5469599,1.0067801,0.44715303,3.3481498,-1.8611523,-26.04375,12.50625,-24.056252,watch_1
15293215458520,4.709075,-1.5469599,1.0067801,0.44715303,3.3481498,-1.8611523,-25.725,8.587501,-23.625,watch_1
15293208275447,4.0007997,-2.7481568,3.045465,0.28221953,3.763538,-1.5557199,-25.725,8.587501,-23.625,watch_1
15293203312686,4.0007997,-2.7481568,3.045465,0.28221953,3.763538,-1.5557199,-25.725,8.587501,-23.625,watch_1
15293225458468,4.0007997,-2.7481568,3.045465,0.28221953,3.763538,-1.5557199,-26.04375,10.3125,-26.8875,watch_1
15293235458416,4.0007997,-2.7481568,3.045465,0.28221953,3.763538,-1.5557199,-25.66875,8.55,-28.275002,watch_1
15293222386697,2.6416762,-1.8101703,5.486144,0.5204568,3.7867508,-1.4946334,-25.66875,8.55,-28.275002,watch_1
15293227349457,2.6416762,-1.8101703,5.486144,0.5204568,3.7867508,-1.4946334,-25.66875,8.55,-28.275002,watch_1
15293245458363,2.6416762,-1.8101703,5.486144,0.5204568,3.7867508,-1.4946334,-24.35625,8.325001,-28.968752,watch_1
15293255458311,4.6372905,-0.6233303,6.7686973,0.5204568,3.7867508,-1.4946334,-23.90625,6.9750004,-29.081251,watch_1
15293246422478,4.6372905,-0.6233303,6.7686973,0.5204568,3.7867508,-1.4946334,-23.90625,6.9750004,-29.081251,watch_1
15293241459718,4.6372905,-0.6233303,6.7686973,0.87109315,3.3652542,-1.4482076,-23.175001,8.85,-33.112503,watch_1
15293265458259,4.6372905,-0.6233303,6.7686973,0.87109315,3.3652542,-1.4482076,-23.175001,8.85,-33.112503,watch_1
15293275458207,4.6372905,-0.6233303,6.7686973,0.87109315,3.3652542,-1.4482076,-21.956251,6.6375003,-34.2,watch_1
15293265496436,7.216753,-0.33140594,9.731011,0.87109315,3.3652542,-1.4482076,-21.956251,6.6375003,-34.2,watch_1
15293260533676,7.216753,-0.33140594,9.731011,1.3194679,3.0598216,-1.3052653,-21.956251,6.6375003,-34.2,watch_1
15293285458155,7.216753,-0.33140594,9.731011,1.3194679,3.0598216,-1.3052653,-21.9375,5.5125003,-34.818752,watch_1
15293284569457,7.8053875,-0.0011964113,11.6644125,1.3194679,3.0598216,-1.3052653,-21.9375,5.5125003,-34.818752,watch_1
15293279606697,7.8053875,-0.0011964113,11.6644125,1.9889758,2.7275112,-1.3492476,-21.9375,5.5125003,-34.818752,watch_1
15293295458103,7.8053875,-0.0011964113,11.6644125,1.9889758,2.7275112,-1.3492476,-21.75,5.9812503,-35.41875,watch_1
15293305458051,7.8053875,-0.0011964113,11.6644125,1.9889758,2.7275112,-1.3492476,-22.368752,2.1375,-37.575,watch_1
15293298680707,7.652247,0.6257231,9.697512,2.729344,2.2278237,-1.5435026,-22.368752,2.1375,-37.575,watch_1
15293303643468,7.652247,0.6257231,9.697512,2.729344,2.2278237,-1.5435026,-22.368752,2.1375,-37.575,watch_1
15293315457999,7.652247,0.6257231,9.697512,2.729344,2.2278237,-1.5435026,-21.337502,1.66875,-36.112503,watch_1
15293325457947,7.652247,0.6257231,9.697512,2.729344,2.2278237,-1.5435026,-19.29375,-2.5687501,-37.65,watch_1
15293322686436,7.288538,4.3537407,10.310075,2.729344,2.2278237,-1.5435026,-19.29375,-2.5687501,-37.65,watch_1
15293317723676,7.288538,4.3537407,10.310075,2.8600688,1.7672318,-1.6021456,-16.650002,-1.5,-37.725002,watch_1
15293335457895,7.288538,4.3537407,10.310075,2.8600688,1.7672318,-1.6021456,-16.650002,-1.5,-37.725002,watch_1
15293345457843,7.288538,4.3537407,10.310075,2.8600688,1.7672318,-1.6021456,-17.0625,-5.25,-37.40625,watch_1
15293336796697,7.288538,4.3537407,10.310075,2.5912883,1.2565489,-1.519068,-17.0625,-5.25,-37.40625,watch_1
15293341759457,8.987442,8.555537,14.588442,2.5912883,1.2565489,-1.519068,-18.206251,-4.5,-39.506252,watch_1
15293355457791,8.987442,8.555537,14.588442,2.5912883,1.2565489,-1.519068,-18.206251,-4.5,-39.506252,watch_1
15293365457738,8.987442,8.555537,14.588442,2.5912883,1.2565489,-1.519068,-16.9125,-6.15,-40.068752,watch_1
15293360833468,9.341579,11.120644,15.009579,1.6749913,0.67744905,-1.1220059,-16.9125,-6.15,-40.068752,watch_1
15293355870707,9.341579,11.120644,15.009579,1.6749913,0.67744905,-1.1220059,-16.9125,-6.15,-40.068752,watch_1
15293375457686,9.341579,11.120644,15.009579,1.6749913,0.67744905,-1.1220059,-17.15625,-5.925,-38.8125,watch_1
15293385457634,9.341579,11.120644,15.009579,1.6749913,0.67744905,-1.1220059,-15.7875,-5.7562504,-38.23125,watch_1
15293374943676,8.394022,13.389039,13.439887,-0.5192351,0.2706131,-0.5539016,-15.7875,-5.7562504,-38.23125,watch_1
15293379906436,8.394022,13.389039,13.439887,-0.5192351,0.2706131,-0.5539016,-15.7875,-5.7562504,-38.23125,watch_1
15293395457582,8.394022,13.389039,13.439887,-0.5192351,0.2706131,-0.5539016,-15.750001,-3.8812501,-40.0125,watch_1
15293405457530,8.394022,13.389039,13.439887,-0.5192351,0.2706131,-0.5539016,-17.71875,-1.63125,-38.568752,watch_1
15293398980447,7.3363943,13.704892,14.526228,-0.5192351,0.2706131,-0.5539016,-17.71875,-1.63125,-38.568752,watch_1
15293394017686,7.3363943,13.704892,14.526228,-3.0836453,0.034819294,0.08506292,-17.71875,-1.63125,-38.568752,watch_1
15293415457478,7.3363943,13.704892,14.526228,-3.0836453,0.034819294,0.08506292,-16.3875,-3.0,-39.15,watch_1
15293425457426,7.3363943,13.704892,14.526228,-3.0836453,0.034819294,0.08506292,-17.775002,-0.7875,-38.8125,watch_1
15293418053468,6.546763,8.311469,14.014164,-3.0836453,0.034819294,0.08506292,-17.775002,-0.7875,-38.8125,watch_1
15293413090707,6.546763,8.311469,14.014164,-4.129446,-0.21197008,0.71058846,-15.937501,2.2875001,-38.456253,watch_1
15293435457374,6.546763,8.311469,14.014164,-4.129446,-0.21197008,0.71058846,-15.937501,2.2875001,-38.456253,watch_1
15293445457322,6.546763,8.311469,14.014164,-4.129446,-0.21197008,0.71058846,-17.775002,2.6625001,-35.081253,watch_1
15293432164718,6.250053,5.7320065,14.258232,-4.493521,-0.34391686,0.979369,-17.775002,2.6625001,-35.081253,watch_1
15293437127478,6.250053,5.7320065,14.258232,-4.493521,-0.34391686,0.979369,-17.775002,2.6625001,-35.081253,watch_1
15293455457270,6.250053,5.7320065,14.258232,-4.493521,-0.34391686,0.979369,-17.118752,4.9125004,-36.675003,watch_1
15293465457218,6.250053,5.7320065,14.258232,-4.493521,-0.34391686,0.979369,-16.85625,5.625,-35.4,watch_1
15293456200447,6.2979093,2.2624137,13.420744,-4.493521,-0.34391686,0.979369,-16.85625,5.625,-35.4,watch_1
15293451237686,6.2979093,2.2624137,13.420744,-4.5472775,-0.61025393,1.1418589,-16.85625,5.625,-35.4,watch_1
15293475457166,6.2979093,2.2624137,13.420744,-4.5472775,-0.61025393,1.1418589,-17.19375,9.243751,-34.48125,watch_1
15293475274457,6.532406,-1.1928221,12.200404,-4.0243773,-0.799622,1.0868812,-17.19375,9.243751,-34.48125,watch_1
15293470311697,6.532406,-1.1928221,12.200404,-4.0243773,-0.799622,1.0868812,-17.19375,9.243751,-34.48125,watch_1
15293485457113,6.532406,-1.1928221,12.200404,-4.0243773,-0.799622,1.0868812,-17.0625,8.8125,-33.5625,watch_1
15293495457061,6.532406,-1.1928221,12.200404,-4.0243773,-0.799622,1.0868812,-18.35625,9.1875,-32.86875,watch_1
15293489384718,6.532406,-1.1928221,12.200404,-2.6279402,-0.67867076,0.85963947,-16.893751,11.962501,-34.725002,watch_1
15293505457009,6.532406,-1.1928221,12.200404,-2.6279402,-0.67867076,0.85963947,-16.893751,11.962501,-34.725002,watch_1
15293494347478,6.556334,-3.1645079,11.683555,-2.6279402,-0.67867076,0.85963947,-16.893751,11.962501,-34.725002,watch_1
15293515456957,6.556334,-3.1645079,11.683555,-2.6279402,-0.67867076,0.85963947,-19.2,13.743751,-32.98125,watch_1
15293513390447,6.1447687,-2.92044,12.119048,-2.6279402,-0.67867076,0.85963947,-19.2,13.743751,-32.98125,watch_1
15293508427686,6.1447687,-2.92044,12.119048,-1.3512329,-0.46364638,0.5847503,-19.2,13.743751,-32.98125,watch_1
15293525456905,6.1447687,-2.92044,12.119048,-1.3512329,-0.46364638,0.5847503,-17.53125,15.075001,-31.7625,watch_1
15293535456853,6.1447687,-2.92044,12.119048,-1.3512329,-0.46364638,0.5847503,-16.95,12.31875,-32.006252,watch_1
15293532463468,6.04427,-2.676372,12.042479,-1.3512329,-0.46364638,0.5847503,-16.95,12.31875,-32.006252,watch_1
15293527500707,6.04427,-2.676372,12.042479,-0.8197805,-0.43432486,0.39293876,-16.95,12.31875,-32.006252,watch_1
15293545456801,6.04427,-2.676372,12.042479,-0.8197805,-0.43432486,0.39293876,-15.675,12.731251,-30.300001,watch_1
15293555456749,6.04427,-2.676372,12.042479,-0.8197805,-0.43432486,0.39293876,-17.8125,12.468751,-30.806252,watch_1
15293546574718,5.948557,-3.1884363,10.5589285,-0.72570735,-0.4062251,0.1876882,-17.8125,12.468751,-30.806252,watch_1
15293551537478,5.948557,-3.1884363,10.5589285,-0.72570735,-0.4062251,0.1876882,-17.8125,12.468751,-30.806252,watch_1
15293565456697,5.948557,-3.1884363,10.5589285,-0.72570735,-0.4062251,0.1876882,-17.456251,14.3625,-31.5375,watch_1
15293575456645,5.948557,-3.1884363,10.5589285,-0.72570735,-0.4062251,0.1876882,-19.087502,12.825001,-29.1,watch_1
15293570610447,5.5944195,-3.2554352,9.984651,-0.48502663,-0.29749113,-0.02367101,-19.087502,12.825001,-29.1,watch_1
15293565647686,5.5944195,-3.2554352,9.984651,-0.48502663,-0.29749113,-0.02367101,-19.087502,12.825001,-29.1,watch_1
15293585456593,5.5944195,-3.2554352,9.984651,-0.48502663,-0.29749113,-0.02367101,-17.98125,13.425,-30.056252,watch_1
15293595456541,5.5944195,-3.2554352,9.984651,-0.48502663,-0.29749113,-0.02367101,-17.98125,13.425,-30.056252,watch_1
15293605456488,5.5944195,-3.2554352,9.984651,-0.48502663,-0.29749113,-0.02367101,-16.706251,14.45625,-31.1625,watch_1
15293615456436,5.5944195,-3.2554352,9.984651,-0.48502663,-0.29749113,-0.02367101,-16.800001,16.44375,-32.4,watch_1
15293625456384,5.5944195,-3.2554352,9.984651,-0.48502663,-0.29749113,-0.02367101,-16.725,12.900001,-31.1625,watch_1
15293635456332,5.5944195,-3.2554352,9.984651,-0.48502663,-0.29749113,-0.02367101,-18.7875,14.156251,-29.625002,watch_1
15293645456280,5.5944195,-3.2554352,9.984651,-0.48502663,-0.29749113,-0.02367101,-18.7875,14.156251,-29.625002,watch_1
15293655456228,5.5944195,-3.2554352,9.984651,-0.48502663,-0.29749113,-0.02367101,-18.018751,13.44375,-31.368752,watch_1
15293665456176,5.5944195,-3.2554352,9.984651,-0.48502663,-0.29749113,-0.02367101,-19.6875,14.812501,-33.0,watch_1
15293675456124,5.5944195,-3.2554352,9.984651,-0.48502663,-0.29749113,-0.02367101,-19.6875,14.812501,-33.0,watch_1
15293685456072,5.5944195,-3.2554352,9.984651,-0.48502663,-0.29749113,-0.02367101,-16.893751,14.156251,-31.893751,watch_1
15293695456020,5.5944195,-3.2554352,9.984651,-0.48502663,-0.29749113,-0.02367101,-16.518751,15.262501,-34.425003,watch_1
15293705455968,5.5944195,-3.2554352,9.984651,-0.48502663,-0.29749113,-0.02367101,-18.88125,15.356251,-33.693752,watch_1
15293715455916,5.5944195,-3.2554352,9.984651,-0.48502663,-0.29749113,-0.02367101,-18.88125,15.356251,-33.693752,watch_1
15293725455863,5.5944195,-3.2554352,9.984651,-0.48502663,-0.29749113,-0.02367101,-18.88125,15.356251,-33.693752,watch_1
15293735455811,5.5944195,-3.2554352,9.984651,-0.48502663,-0.29749113,-0.02367101,-18.50625,14.531251,-32.4,watch_1
15293745455759,5.5944195,-3.2554352,9.984651,-0.48502663,-0.29749113,-0.02367101,-18.50625,12.937501,-30.6375,watch_1
15293755455707,5.5944195,-3.2554352,9.984651,-0.48502663,-0.29749113,-0.02367101,-16.95,14.6625,-29.475,watch_1
15293765455655,5.5944195,-3.2554352,9.984651,-0.48502663,-0.29749113,-0.02367101,-16.95,14.6625,-29.475,watch_1
15293589684457,5.355137,-1.2837493,9.242876,-0.48502663,-0.29749113,-0.02367101,-16.95,14.6625,-29.475,watch_1
15293608757478,5.3216376,-1.9010975,8.7164545,-0.48502663,-0.29749113,-0.02367101,-16.95,14.6625,-29.475,watch_1
15293627831436,5.3216376,-1.9010975,8.7164545,-0.48502663,-0.29749113,-0.02367101,-16.95,14.6625,-29.475,watch_1
15293646904457,5.3072805,-2.1978076,7.8071823,-0.48502663,-0.29749113,-0.02367101,-16.95,14.6625,-29.475,watch_1
15293665978468,5.2737813,-0.72382885,8.065607,-0.48502663,-0.29749113,-0.02367101,-16.95,14.6625,-29.475,watch_1
15293685021436,5.2737813,-0.72382885,8.065607,-0.48502663,-0.29749113,-0.02367101,-16.95,14.6625,-29.475,watch_1
15293704094457,5.1924253,-0.7429714,7.768897,-0.48502663,-0.29749113,-0.02367101,-16.95,14.6625,-29.475,watch_1
15293723168468,5.1206403,-1.2837493,7.9555373,-0.48502663,-0.29749113,-0.02367101,-16.95,14.6625,-29.475,watch_1
15293742241436,5.0775695,-1.867598,7.8263245,-0.48502663,-0.29749113,-0.02367101,-16.95,14.6625,-29.475,watch_1
15293761315447,4.9196434,-2.5471597,7.5056863,-0.48502663,-0.29749113,-0.02367101,-16.95,14.6625,-29.475,watch_1
