# Session ID: 20250816_124606
# Start Time: 1755341166972
# Device ID: watch_1
# Sample Count: 2918
# Generated by Watch IMU Recorder
timestamp,accel_x,accel_y,accel_z,gyro_x,gyro_y,gyro_z,mag_x,mag_y,mag_z,watch_name
26225009082950,0.3062813,0.013160525,9.764511,-0.0024434591,0.016493348,-0.0004581486,-89.025,6.5437503,46.331253,watch_1
26225028125919,0.32542387,0.013160525,9.845867,-0.0024434591,0.016493348,-0.0004581486,-89.025,6.5437503,46.331253,watch_1
26225047198940,0.3493521,0.01794617,9.793225,-0.0024434591,0.016493348,-0.0004581486,-89.025,6.5437503,46.331253,watch_1
26225066272950,0.3589234,0.01794617,9.817153,-0.0024434591,0.016493348,-0.0004581486,-89.025,6.5437503,46.331253,watch_1
26225090325450,0.3589234,0.01794617,9.817153,-0.0024434591,0.016493348,-0.0004581486,-90.131256,9.46875,41.98125,watch_1
26225085345919,0.33020952,0.013160525,9.8219385,-0.0012217296,0.005497783,-0.0016798781,-90.131256,9.46875,41.98125,watch_1
26225080383158,0.33020952,0.013160525,9.8219385,-0.0012217296,0.005497783,-0.0016798781,-90.131256,9.46875,41.98125,watch_1
26225110325346,0.33020952,0.013160525,9.8219385,-0.0012217296,0.005497783,-0.0016798781,-89.887505,11.45625,42.84375,watch_1
26225100325398,0.33020952,0.013160525,9.8219385,-0.0012217296,0.005497783,-0.0016798781,-89.887505,11.45625,42.84375,watch_1
26225104419929,0.33020952,0.0035892338,9.798011,-0.0012217296,0.0067195124,-0.0004581486,-89.887505,11.45625,42.84375,watch_1
26225099457169,0.33020952,0.0035892338,9.798011,-0.0012217296,0.0067195124,-0.0004581486,-89.887505,11.45625,42.84375,watch_1
26225120325294,0.33020952,0.0035892338,9.798011,-0.0012217296,0.0067195124,-0.0004581486,-88.59375,10.89375,44.0625,watch_1
26225130325242,0.31585258,-0.0059820567,9.826724,-0.0012217296,0.0067195124,-0.0004581486,-89.193756,9.39375,44.287502,watch_1
26225123492950,0.31585258,-0.0059820567,9.826724,0.0,0.0030543238,-0.0004581486,-89.193756,9.39375,44.287502,watch_1
26225140325190,0.31585258,-0.0059820567,9.826724,0.0,0.0030543238,-0.0004581486,-90.39375,10.96875,43.275,watch_1
26225118530190,0.31585258,-0.0059820567,9.826724,0.0,0.0030543238,-0.0004581486,-89.193756,9.39375,44.287502,watch_1
26225150325138,0.31585258,-0.0059820567,9.826724,0.0,0.0030543238,-0.0004581486,-88.875,9.431251,44.90625,watch_1
26225142566908,0.31585258,0.008374879,9.793225,0.0,0.0030543238,-0.0004581486,-88.875,9.431251,44.90625,watch_1
26225137604148,0.31585258,0.008374879,9.793225,0.0,-0.0030543238,-0.0004581486,-88.875,9.431251,44.90625,watch_1
26225160325085,0.31585258,0.008374879,9.793225,0.0,-0.0030543238,-0.0004581486,-89.325005,11.1,43.0875,watch_1
26225170325033,0.32542387,0.01794617,9.8219385,0.0,-0.0030543238,-0.0004581486,-87.46875,11.775001,42.65625,watch_1
26225161639929,0.32542387,0.01794617,9.8219385,0.0,-0.0030543238,-0.0004581486,-87.46875,11.775001,42.65625,watch_1
26225156677169,0.32542387,0.01794617,9.8219385,0.0,-0.0030543238,-0.0004581486,-87.46875,11.775001,42.65625,watch_1
26225180324981,0.32542387,0.01794617,9.8219385,0.0,-0.0030543238,-0.0004581486,-89.662506,10.762501,43.518753,watch_1
26225180713940,0.33499518,0.008374879,9.812367,0.0,-0.0030543238,-0.0004581486,-88.93125,9.150001,44.34375,watch_1
26225175751179,0.33499518,0.008374879,9.812367,-0.0012217296,-0.0042760535,-0.0004581486,-88.93125,9.150001,44.34375,watch_1
26225190324929,0.33499518,0.008374879,9.812367,-0.0012217296,-0.0042760535,-0.0004581486,-88.93125,9.150001,44.34375,watch_1
26225200324877,0.33499518,0.008374879,9.812367,-0.0012217296,-0.0042760535,-0.0004581486,-89.90625,10.06875,42.09375,watch_1
26225199756908,0.34456646,0.0035892338,9.812367,-0.0012217296,-0.0042760535,-0.0004581486,-89.90625,10.06875,42.09375,watch_1
26225194794148,0.34456646,0.0035892338,9.812367,-0.0012217296,-0.0006108648,-0.0004581486,-89.90625,10.06875,42.09375,watch_1
26225210324825,0.34456646,0.0035892338,9.812367,-0.0012217296,-0.0006108648,-0.0004581486,-89.850006,10.3125,43.3875,watch_1
26225220324773,0.34456646,0.0035892338,9.812367,-0.0012217296,-0.0006108648,-0.0004581486,-88.725006,9.918751,42.393753,watch_1
26225213867169,0.33499518,0.008374879,9.812367,0.0,0.0030543238,-0.0004581486,-88.725006,9.918751,42.393753,watch_1
26225218829929,0.33499518,0.008374879,9.812367,0.0,0.0030543238,-0.0004581486,-88.725006,9.918751,42.393753,watch_1
26225230324721,0.33499518,0.008374879,9.812367,0.0,0.0030543238,-0.0004581486,-89.006256,9.84375,44.11875,watch_1
26225240324669,0.33499518,0.008374879,9.812367,0.0,0.0030543238,-0.0004581486,-88.256256,11.231251,43.2,watch_1
26225237903940,0.31585258,0.008374879,9.802796,0.0,0.0042760535,-0.0004581486,-88.256256,11.231251,43.2,watch_1
26225232941179,0.31585258,0.008374879,9.802796,0.0,0.0042760535,-0.0004581486,-88.256256,11.231251,43.2,watch_1
26225250324617,0.31585258,0.008374879,9.802796,0.0,0.0042760535,-0.0004581486,-87.58125,10.78125,42.73125,watch_1
26225260324565,0.31585258,0.008374879,9.802796,0.0,0.0042760535,-0.0004581486,-88.2375,9.95625,43.7625,watch_1
26225256976908,0.31585258,0.032303106,9.817153,0.0,0.0042760535,-0.0004581486,-88.2375,9.95625,43.7625,watch_1
26225252014148,0.31585258,0.032303106,9.817153,0.0,0.0006108648,-0.0004581486,-88.2375,9.95625,43.7625,watch_1
26225270324513,0.31585258,0.032303106,9.817153,0.0,0.0006108648,-0.0004581486,-91.18125,12.0,42.9375,watch_1
26225280324460,0.31585258,0.032303106,9.817153,0.0,0.0006108648,-0.0004581486,-90.20625,11.4375,41.79375,watch_1
26225276050919,0.33020952,0.02751746,9.798011,0.0,-0.0042760535,-0.0004581486,-90.20625,11.4375,41.79375,watch_1
26225271088158,0.33020952,0.02751746,9.798011,0.0,-0.0042760535,-0.0004581486,-90.20625,11.4375,41.79375,watch_1
26225290324408,0.33020952,0.02751746,9.798011,0.0,-0.0042760535,-0.0004581486,-87.28125,10.650001,43.36875,watch_1
26225300324356,0.33020952,0.02751746,9.798011,0.0,-0.0042760535,-0.0004581486,-89.08125,12.31875,40.818752,watch_1
26225295123940,0.33020952,0.013160525,9.802796,0.0,-0.0042760535,-0.0004581486,-89.08125,12.31875,40.818752,watch_1
26225290161179,0.33020952,0.013160525,9.802796,-0.0012217296,-0.0030543238,-0.0004581486,-89.08125,12.31875,40.818752,watch_1
26225310324304,0.33020952,0.013160525,9.802796,-0.0012217296,-0.0030543238,-0.0004581486,-90.15,10.59375,42.318752,watch_1
26225320324252,0.33020952,0.013160525,9.802796,-0.0012217296,-0.0030543238,-0.0004581486,-88.631256,10.63125,42.61875,watch_1
26225309235190,0.33499518,-0.0011964113,9.807582,-0.0012217296,-0.0006108648,-0.0004581486,-88.631256,10.63125,42.61875,watch_1
26225314197950,0.33499518,-0.0011964113,9.807582,-0.0012217296,-0.0006108648,-0.0004581486,-88.631256,10.63125,42.61875,watch_1
26225330324200,0.33499518,-0.0011964113,9.807582,-0.0012217296,-0.0006108648,-0.0004581486,-90.1875,11.7375,41.756252,watch_1
26225340324148,0.33499518,-0.0011964113,9.807582,-0.0012217296,-0.0006108648,-0.0004581486,-88.668755,11.775001,42.075,watch_1
26225333270919,0.33499518,-0.0011964113,9.807582,-0.0012217296,-0.0006108648,-0.0004581486,-88.668755,11.775001,42.075,watch_1
26225328308158,0.33499518,-0.0011964113,9.807582,-0.0012217296,0.0018325944,-0.0004581486,-88.668755,11.775001,42.075,watch_1
26225350324096,0.33499518,-0.0011964113,9.807582,-0.0012217296,0.0018325944,-0.0004581486,-89.981255,10.762501,42.16875,watch_1
26225360324044,0.33499518,-0.0011964113,9.807582,-0.0012217296,0.0018325944,-0.0004581486,-89.100006,12.31875,40.36875,watch_1
26225352344929,0.31585258,0.0035892338,9.802796,-0.0012217296,0.0018325944,-0.0004581486,-89.100006,12.31875,40.36875,watch_1
26225347382169,0.31585258,0.0035892338,9.802796,0.0,0.0030543238,-0.0004581486,-89.100006,12.31875,40.36875,watch_1
26225370323992,0.31585258,0.0035892338,9.802796,0.0,0.0030543238,-0.0004581486,-89.83125,12.187501,42.05625,watch_1
26225380323940,0.31585258,0.0035892338,9.802796,0.0,0.0030543238,-0.0004581486,-89.943756,12.637501,40.8375,watch_1
26225371387950,0.31585258,0.013160525,9.798011,0.0,0.0030543238,-0.0004581486,-89.943756,12.637501,40.8375,watch_1
26225366425190,0.31585258,0.013160525,9.798011,0.0,0.0030543238,-0.0004581486,-89.34375,11.45625,40.29375,watch_1
26225390323888,0.31585258,0.013160525,9.798011,0.0,0.0030543238,-0.0004581486,-89.34375,11.45625,40.29375,watch_1
26225400323835,0.33499518,0.022731815,9.812367,0.0,0.0030543238,-0.0004581486,-88.818756,11.925,41.175003,watch_1
26225390460919,0.33499518,0.022731815,9.812367,0.0,0.0030543238,-0.0004581486,-88.818756,11.925,41.175003,watch_1
26225385498158,0.33499518,0.022731815,9.812367,0.0,0.0006108648,-0.0016798781,-88.818756,11.925,41.175003,watch_1
26225410323783,0.33499518,0.022731815,9.812367,0.0,0.0006108648,-0.0016798781,-88.89375,12.76875,40.93125,watch_1
26225409534929,0.33020952,0.008374879,9.807582,0.0,0.0006108648,-0.0016798781,-88.89375,12.76875,40.93125,watch_1
26225404572169,0.33020952,0.008374879,9.807582,-0.0012217296,-0.0042760535,-0.0004581486,-88.89375,12.76875,40.93125,watch_1
26225420323731,0.33020952,0.008374879,9.807582,-0.0012217296,-0.0042760535,-0.0004581486,-89.45625,12.806251,42.037502,watch_1
26225430323679,0.33020952,0.008374879,9.807582,-0.0012217296,-0.0042760535,-0.0004581486,-90.506256,13.14375,40.125,watch_1
26225440323627,0.33020952,0.008374879,9.807582,-0.0012217296,-0.0042760535,-0.0004581486,-89.925,11.175,42.43125,watch_1
26225423645190,0.33020952,0.008374879,9.807582,-0.0012217296,-0.0042760535,-0.0004581486,-89.925,11.175,42.43125,watch_1
26225450323575,0.34456646,0.0035892338,9.793225,-0.0012217296,-0.0042760535,-0.0004581486,-89.26875,11.681251,42.600002,watch_1
26225428607950,0.34456646,0.0035892338,9.793225,-0.0012217296,-0.0042760535,-0.0004581486,-89.26875,11.681251,42.600002,watch_1
26225447681908,0.34456646,0.0035892338,9.807582,-0.0012217296,-0.0042760535,-0.0004581486,-89.26875,11.681251,42.600002,watch_1
26225442719148,0.34456646,0.0035892338,9.807582,0.0,-0.0018325944,-0.0004581486,-89.26875,11.681251,42.600002,watch_1
26225460323523,0.34456646,0.0035892338,9.807582,0.0,-0.0018325944,-0.0004581486,-90.01875,10.481251,41.475002,watch_1
26225470323471,0.34456646,0.0035892338,9.807582,0.0,-0.0018325944,-0.0004581486,-90.7125,11.118751,40.74375,watch_1
26225466754929,0.33499518,0.008374879,9.798011,0.0,-0.0018325944,-0.0004581486,-90.7125,11.118751,40.74375,watch_1
26225461792169,0.33499518,0.008374879,9.798011,0.0,0.0018325944,-0.0004581486,-90.7125,11.118751,40.74375,watch_1
26225480323419,0.33499518,0.008374879,9.798011,0.0,0.0018325944,-0.0004581486,-90.0,10.462501,42.487503,watch_1
26225490323367,0.33499518,0.008374879,9.798011,0.0,0.0018325944,-0.0004581486,-89.5875,11.83125,40.800003,watch_1
26225480866179,0.32542387,0.013160525,9.802796,0.0,0.0030543238,-0.0004581486,-89.5875,11.83125,40.800003,watch_1
26225485828940,0.32542387,0.013160525,9.802796,0.0,0.0030543238,-0.0004581486,-89.5875,11.83125,40.800003,watch_1
26225500323315,0.32542387,0.013160525,9.802796,0.0,0.0030543238,-0.0004581486,-89.68125,12.075001,41.925003,watch_1
26225510323263,0.32542387,0.013160525,9.802796,0.0,0.0030543238,-0.0004581486,-88.74375,12.3,43.4625,watch_1
26225504901908,0.31585258,0.01794617,9.802796,0.0,0.0030543238,-0.0004581486,-88.74375,12.3,43.4625,watch_1
26225499939148,0.31585258,0.01794617,9.802796,-0.0012217296,0.0030543238,-0.0004581486,-88.74375,12.3,43.4625,watch_1
26225520323210,0.31585258,0.01794617,9.802796,-0.0012217296,0.0030543238,-0.0004581486,-88.350006,13.387501,41.381252,watch_1
26225530323158,0.31585258,0.01794617,9.802796,-0.0012217296,0.0030543238,-0.0004581486,-90.600006,12.1125,41.25,watch_1
26225523975919,0.32542387,0.0035892338,9.802796,-0.0012217296,0.0006108648,-0.0004581486,-90.600006,12.1125,41.25,watch_1
26225519013158,0.32542387,0.0035892338,9.802796,-0.0012217296,0.0006108648,-0.0004581486,-90.600006,12.1125,41.25,watch_1
26225540323106,0.32542387,0.0035892338,9.802796,-0.0012217296,0.0006108648,-0.0004581486,-90.05625,11.625,40.912502,watch_1
26225550323054,0.32542387,0.0035892338,9.802796,-0.0012217296,0.0006108648,-0.0004581486,-90.037506,11.606251,41.943752,watch_1
26225538056179,0.33020952,-0.0059820567,9.802796,-0.0012217296,-0.0030543238,-0.0004581486,-90.037506,11.606251,41.943752,watch_1
26225543018940,0.33020952,-0.0059820567,9.802796,-0.0012217296,-0.0030543238,-0.0004581486,-90.037506,11.606251,41.943752,watch_1
26225560323002,0.33020952,-0.0059820567,9.802796,-0.0012217296,-0.0030543238,-0.0004581486,-88.59375,12.4875,42.018753,watch_1
26225570322950,0.33020952,-0.0059820567,9.802796,-0.0012217296,-0.0030543238,-0.0004581486,-90.356255,11.56875,41.60625,watch_1
26225562091908,0.32542387,-0.010767702,9.798011,0.0,-0.0042760535,-0.0004581486,-90.356255,11.56875,41.60625,watch_1
26225557129148,0.32542387,-0.010767702,9.798011,0.0,-0.0042760535,-0.0004581486,-90.356255,11.56875,41.60625,watch_1
26225590322846,0.33499518,0.02751746,9.802796,0.0,0.0018325944,-0.0004581486,-88.0875,10.293751,42.581253,watch_1
26225600238940,0.33499518,0.02751746,9.802796,0.0,0.0018325944,-0.0004581486,-89.100006,10.425,42.73125,watch_1
26225595276179,0.33499518,0.02751746,9.802796,0.0,0.0018325944,-0.0004581486,-88.3125,8.887501,46.612503,watch_1
26225620322690,0.31585258,0.01794617,9.807582,0.0,0.0018325944,-0.0004581486,-88.3125,8.887501,46.612503,watch_1
26225619311908,0.31585258,0.01794617,9.807582,0.0,0.0018325944,-0.0004581486,-88.3125,8.887501,46.612503,watch_1
26225614349148,0.31585258,0.01794617,9.807582,0.0,0.0030543238,-0.0004581486,-88.3125,8.887501,46.612503,watch_1
26225610322742,0.33499518,0.02751746,9.802796,0.0,0.0018325944,-0.0004581486,-88.3125,8.887501,46.612503,watch_1
26225580322898,0.31585258,0.01794617,9.807582,0.0,0.0030543238,-0.0004581486,-89.11875,10.125,43.78125,watch_1
26225576203158,0.31585258,0.01794617,9.807582,0.0,0.0030543238,-0.0004581486,-89.11875,10.125,43.78125,watch_1
26225638385919,0.32063824,0.013160525,9.807582,0.0,0.0030543238,-0.0004581486,-89.381256,8.775001,45.487503,watch_1
26225581165919,0.33499518,0.02751746,9.802796,0.0,0.0018325944,-0.0004581486,-88.0875,10.293751,42.581253,watch_1
26225600322794,0.31585258,0.01794617,9.807582,0.0,0.0030543238,-0.0004581486,-89.381256,8.775001,45.487503,watch_1
26225630322638,0.31585258,0.01794617,9.807582,0.0,0.0030543238,-0.0004581486,-89.381256,8.775001,45.487503,watch_1
26225633423158,0.32063824,0.013160525,9.807582,-0.0012217296,0.0018325944,-0.0016798781,-90.09375,9.431251,44.025,watch_1
26225650322533,0.32063824,0.013160525,9.807582,-0.0012217296,0.0018325944,-0.0016798781,-90.09375,9.431251,44.025,watch_1
26225660322481,0.33020952,0.013160525,9.807582,-0.0012217296,0.0018325944,-0.0016798781,-87.75,10.293751,44.362503,watch_1
26225657458940,0.33020952,0.013160525,9.807582,-0.0012217296,0.0018325944,-0.0016798781,-87.75,10.293751,44.362503,watch_1
26225640322585,0.32063824,0.013160525,9.807582,0.0,0.0030543238,-0.0004581486,-89.381256,8.775001,45.487503,watch_1
26225652496179,0.33020952,0.013160525,9.807582,-0.0012217296,-0.0006108648,-0.0004581486,-87.75,10.293751,44.362503,watch_1
26225670322429,0.33020952,0.013160525,9.807582,-0.0012217296,-0.0006108648,-0.0004581486,-88.106255,8.400001,44.643753,watch_1
26225680322377,0.33020952,0.013160525,9.807582,-0.0012217296,-0.0006108648,-0.0004581486,-89.25,7.2187505,46.66875,watch_1
26225676532950,0.33020952,-0.0059820567,9.793225,-0.0012217296,-0.0018325944,-0.0016798781,-89.25,7.2187505,46.66875,watch_1
26225671570190,0.33020952,-0.0059820567,9.793225,-0.0012217296,-0.0018325944,-0.0016798781,-89.25,7.2187505,46.66875,watch_1
26225690322325,0.33020952,-0.0059820567,9.793225,-0.0012217296,-0.0018325944,-0.0016798781,-88.96875,9.825001,45.7125,watch_1
26225700322273,0.33020952,-0.0059820567,9.793225,-0.0012217296,-0.0018325944,-0.0016798781,-89.71875,11.606251,43.275,watch_1
26225695605919,0.33499518,-0.0011964113,9.793225,-0.0012217296,-0.0006108648,-0.0004581486,-89.71875,11.606251,43.275,watch_1
26225690643158,0.33499518,-0.0011964113,9.793225,-0.0012217296,-0.0006108648,-0.0004581486,-89.71875,11.606251,43.275,watch_1
26225710322221,0.33499518,-0.0011964113,9.793225,-0.0012217296,-0.0006108648,-0.0004581486,-88.8375,11.625,41.925003,watch_1
26225720322169,0.33499518,-0.0011964113,9.793225,-0.0012217296,-0.0006108648,-0.0004581486,-88.89375,10.856251,44.025,watch_1
26225714648940,0.33020952,0.008374879,9.802796,0.0,-0.0006108648,-0.0004581486,-88.89375,10.856251,44.025,watch_1
26225709686179,0.33020952,0.008374879,9.802796,0.0,-0.0006108648,-0.0004581486,-88.89375,10.856251,44.025,watch_1
26225730322117,0.33020952,0.008374879,9.802796,0.0,-0.0006108648,-0.0004581486,-89.175,12.712501,41.193752,watch_1
26225740322065,0.33020952,0.008374879,9.802796,0.0,-0.0006108648,-0.0004581486,-88.631256,12.20625,42.037502,watch_1
26225733722950,0.32542387,0.02751746,9.807582,0.0,0.0018325944,-0.0004581486,-88.631256,12.20625,42.037502,watch_1
26225728760190,0.32542387,0.02751746,9.807582,0.0,0.0018325944,-0.0004581486,-88.631256,12.20625,42.037502,watch_1
26225750322013,0.32542387,0.02751746,9.807582,0.0,0.0018325944,-0.0004581486,-88.856255,11.625,41.49375,watch_1
26225760321960,0.32542387,0.02751746,9.807582,0.0,0.0018325944,-0.0004581486,-88.537506,11.64375,42.54375,watch_1
26225752795919,0.33020952,0.013160525,9.798011,-0.0012217296,0.0006108648,-0.0016798781,-88.537506,11.64375,42.54375,watch_1
26225747833158,0.33020952,0.013160525,9.798011,-0.0012217296,0.0006108648,-0.0016798781,-88.537506,11.64375,42.54375,watch_1
26225770321908,0.33020952,0.013160525,9.798011,-0.0012217296,0.0006108648,-0.0016798781,-91.0875,11.925,40.03125,watch_1
26225780321856,0.33020952,0.013160525,9.798011,-0.0012217296,0.0006108648,-0.0016798781,-89.100006,12.31875,40.36875,watch_1
26225771869929,0.31585258,0.008374879,9.807582,-0.0024434591,-0.0006108648,-0.0004581486,-89.100006,12.31875,40.36875,watch_1
26225766907169,0.31585258,0.008374879,9.807582,-0.0024434591,-0.0006108648,-0.0004581486,-89.100006,12.31875,40.36875,watch_1
26225790321804,0.31585258,0.008374879,9.807582,-0.0024434591,-0.0006108648,-0.0004581486,-90.225006,11.137501,42.393753,watch_1
26225800321752,0.31585258,0.008374879,9.807582,-0.0024434591,-0.0006108648,-0.0004581486,-88.2375,11.53125,42.73125,watch_1
26225790942950,0.31106696,0.008374879,9.798011,-0.0024434591,-0.0006108648,-0.0004581486,-88.2375,11.53125,42.73125,watch_1
26225810321700,0.31106696,0.008374879,9.798011,-0.0012217296,-0.0030543238,-0.0004581486,-88.59375,12.825001,40.237503,watch_1
26225785980190,0.31106696,0.008374879,9.798011,-0.0012217296,-0.0030543238,-0.0004581486,-88.59375,12.825001,40.237503,watch_1
26225820321648,0.3397808,0.0035892338,9.802796,-0.0012217296,-0.0030543238,-0.0004581486,-88.93125,12.168751,42.0,watch_1
26225810016908,0.3397808,0.0035892338,9.802796,-0.0012217296,-0.0030543238,-0.0004581486,-88.93125,12.168751,42.0,watch_1
26225805054148,0.3397808,0.0035892338,9.802796,0.0,-0.0018325944,-0.0004581486,-88.93125,12.168751,42.0,watch_1
26225830321596,0.3397808,0.0035892338,9.802796,0.0,-0.0018325944,-0.0004581486,-90.975006,11.3625,40.987503,watch_1
26225829089929,0.33020952,0.008374879,9.798011,0.0,-0.0018325944,-0.0004581486,-90.975006,11.3625,40.987503,watch_1
26225824127169,0.33020952,0.008374879,9.798011,0.0012217296,-0.0006108648,-0.0004581486,-90.975006,11.3625,40.987503,watch_1
26225840321544,0.33020952,0.008374879,9.798011,0.0012217296,-0.0006108648,-0.0004581486,-89.512505,12.225,42.80625,watch_1
26225850321492,0.33020952,0.008374879,9.798011,0.0012217296,-0.0006108648,-0.0004581486,-89.64375,11.25,41.1375,watch_1
26225843201179,0.32542387,0.01794617,9.807582,0.0012217296,0.0018325944,-0.0004581486,-89.64375,11.25,41.1375,watch_1
26225848163940,0.32542387,0.01794617,9.807582,0.0012217296,0.0018325944,-0.0004581486,-89.64375,11.25,41.1375,watch_1
26225860321440,0.32542387,0.01794617,9.807582,0.0012217296,0.0018325944,-0.0004581486,-89.0625,12.618751,40.350002,watch_1
26225870321388,0.32542387,0.01794617,9.807582,0.0012217296,0.0018325944,-0.0004581486,-89.0625,12.618751,40.350002,watch_1
26225867236908,0.32063824,0.01794617,9.807582,0.0,0.0030543238,-0.0004581486,-89.0625,12.618751,40.350002,watch_1
26225862274148,0.32063824,0.01794617,9.807582,0.0,0.0030543238,-0.0004581486,-89.0625,12.618751,40.350002,watch_1
26225880321335,0.32063824,0.01794617,9.807582,0.0,0.0030543238,-0.0004581486,-90.318756,12.0375,40.125,watch_1
26225890321283,0.32063824,0.01794617,9.807582,0.0,0.0030543238,-0.0004581486,-89.418755,13.575001,39.91875,watch_1
26225886279929,0.31106696,0.01794617,9.812367,0.0,0.0006108648,-0.0004581486,-89.418755,13.575001,39.91875,watch_1
26225881317169,0.31106696,0.01794617,9.812367,0.0,0.0006108648,-0.0004581486,-89.418755,13.575001,39.91875,watch_1
26225900321231,0.31106696,0.01794617,9.812367,0.0,0.0006108648,-0.0004581486,-90.037506,13.181251,40.612503,watch_1
26225910321179,0.31106696,0.01794617,9.812367,0.0,0.0006108648,-0.0004581486,-89.30625,11.71875,40.987503,watch_1
26225900391179,0.32063824,-0.0059820567,9.812367,-0.0012217296,-0.0006108648,-0.0004581486,-89.30625,11.71875,40.987503,watch_1
26225905353940,0.32063824,-0.0059820567,9.812367,-0.0012217296,-0.0006108648,-0.0004581486,-89.30625,11.71875,40.987503,watch_1
26225920321127,0.32063824,-0.0059820567,9.812367,-0.0012217296,-0.0006108648,-0.0004581486,-90.825005,12.637501,41.60625,watch_1
26225930321075,0.32063824,-0.0059820567,9.812367,-0.0012217296,-0.0006108648,-0.0004581486,-88.65,10.650001,41.60625,watch_1
26225919464148,0.33020952,-0.020338992,9.783653,-0.0012217296,-0.0006108648,-0.0004581486,-88.65,10.650001,41.60625,watch_1
26225924426908,0.33020952,-0.020338992,9.783653,-0.0012217296,-0.0006108648,-0.0004581486,-88.65,10.650001,41.60625,watch_1
26225940321023,0.33020952,-0.020338992,9.783653,-0.0012217296,-0.0006108648,-0.0004581486,-90.3,10.725,41.41875,watch_1
26225950320971,0.33020952,-0.020338992,9.783653,-0.0012217296,-0.0006108648,-0.0004581486,-89.2125,12.431251,41.23125,watch_1
26225938538158,0.3397808,0.013160525,9.798011,0.0,-0.0006108648,-0.0004581486,-89.2125,12.431251,41.23125,watch_1
26225943500919,0.3397808,0.013160525,9.798011,0.0,-0.0006108648,-0.0004581486,-89.2125,12.431251,41.23125,watch_1
26225960320919,0.3397808,0.013160525,9.798011,0.0,-0.0006108648,-0.0004581486,-91.05,11.887501,42.375,watch_1
26225970320867,0.3397808,0.013160525,9.798011,0.0,-0.0006108648,-0.0004581486,-89.175,12.712501,41.193752,watch_1
26225962573940,0.3397808,0.02751746,9.788439,0.0,-0.0006108648,-0.0004581486,-89.175,12.712501,41.193752,watch_1
26225957611179,0.3397808,0.02751746,9.788439,0.0012217296,-0.0006108648,-0.0004581486,-90.131256,12.150001,42.300003,watch_1
26225980320815,0.3397808,0.02751746,9.788439,0.0012217296,-0.0006108648,-0.0004581486,-90.131256,12.150001,42.300003,watch_1
26225990320763,0.3397808,0.02751746,9.788439,0.0012217296,-0.0006108648,-0.0004581486,-90.525,12.675,41.625,watch_1
26225981647950,0.32542387,0.01794617,9.798011,0.0,0.0018325944,-0.0004581486,-90.525,12.675,41.625,watch_1
26225976685190,0.32542387,0.01794617,9.798011,0.0,0.0018325944,-0.0004581486,-90.525,12.675,41.625,watch_1
26226000320710,0.32542387,0.01794617,9.798011,0.0,0.0018325944,-0.0004581486,-89.8125,12.4875,41.287502,watch_1
26226010320658,0.33020952,0.022731815,9.807582,0.0,0.0018325944,-0.0004581486,-90.0,10.78125,41.15625,watch_1
26226000720919,0.33020952,0.022731815,9.807582,0.0,0.0018325944,-0.0004581486,-90.0,10.78125,41.15625,watch_1
26225995758158,0.33020952,0.022731815,9.807582,0.0,0.0018325944,-0.0004581486,-90.0,10.78125,41.15625,watch_1
26226020320606,0.33020952,0.022731815,9.807582,0.0,0.0018325944,-0.0004581486,-89.90625,11.475,41.8125,watch_1
26226019794929,0.33499518,0.01794617,9.802796,-0.0012217296,-0.0006108648,-0.0004581486,-89.90625,11.475,41.8125,watch_1
26226014832169,0.33499518,0.01794617,9.802796,-0.0012217296,-0.0006108648,-0.0004581486,-89.90625,11.475,41.8125,watch_1
26226030320554,0.33499518,0.01794617,9.802796,-0.0012217296,-0.0006108648,-0.0004581486,-92.325005,11.475,40.518753,watch_1
26226040320502,0.33499518,0.01794617,9.802796,-0.0012217296,-0.0006108648,-0.0004581486,-88.40625,14.55,39.506252,watch_1
26226038867950,0.33499518,0.013160525,9.798011,-0.0012217296,-0.0006108648,-0.0004581486,-88.40625,14.55,39.506252,watch_1
26226033905190,0.33499518,0.013160525,9.798011,-0.0012217296,-0.0006108648,-0.0004581486,-89.8125,11.08125,40.987503,watch_1
26226050320450,0.33499518,0.013160525,9.798011,-0.0012217296,-0.0006108648,-0.0004581486,-89.8125,11.08125,40.987503,watch_1
26226060320398,0.33499518,0.013160525,9.798011,-0.0012217296,-0.0006108648,-0.0004581486,-90.225006,11.45625,40.7625,watch_1
26226057941908,0.33499518,-0.0059820567,9.807582,-0.0012217296,-0.0006108648,-0.0004581486,-90.225006,11.45625,40.7625,watch_1
26226052979148,0.33499518,-0.0059820567,9.807582,-0.0012217296,0.0030543238,-0.0004581486,-90.225006,11.45625,40.7625,watch_1
26226070320346,0.33499518,-0.0059820567,9.807582,-0.0012217296,0.0030543238,-0.0004581486,-89.700005,10.5,42.225002,watch_1
26226080320294,0.33499518,-0.0059820567,9.807582,-0.0012217296,0.0030543238,-0.0004581486,-87.787506,10.35,41.5875,watch_1
26226072022169,0.31106696,-0.0059820567,9.798011,-0.0012217296,0.0042760535,-0.0016798781,-87.787506,10.35,41.5875,watch_1
26226076984929,0.31106696,-0.0059820567,9.798011,-0.0012217296,0.0042760535,-0.0016798781,-87.787506,10.35,41.5875,watch_1
26226090320242,0.31106696,-0.0059820567,9.798011,-0.0012217296,0.0042760535,-0.0016798781,-89.49375,8.25,43.5,watch_1
26226100320190,0.31106696,-0.0059820567,9.798011,-0.0012217296,0.0042760535,-0.0016798781,-88.725006,9.6,44.175003,watch_1
26226091095190,0.31585258,0.008374879,9.788439,0.0012217296,-0.0006108648,-0.0004581486,-88.725006,9.6,44.175003,watch_1
26226096057950,0.31585258,0.008374879,9.788439,0.0012217296,-0.0006108648,-0.0004581486,-88.725006,9.6,44.175003,watch_1
26226110320138,0.31585258,0.008374879,9.788439,0.0012217296,-0.0006108648,-0.0004581486,-88.93125,12.168751,42.0,watch_1
26226120320085,0.31585258,0.008374879,9.788439,0.0012217296,-0.0006108648,-0.0004581486,-88.762505,10.743751,43.48125,watch_1
26226115131908,0.33020952,0.022731815,9.807582,0.0,-0.005497783,-0.0016798781,-88.762505,10.743751,43.48125,watch_1
26226110169148,0.33020952,0.022731815,9.807582,0.0,-0.005497783,-0.0016798781,-88.762505,10.743751,43.48125,watch_1
26226130320033,0.33020952,0.022731815,9.807582,0.0,-0.005497783,-0.0016798781,-88.9875,12.843751,42.80625,watch_1
26226140319981,0.33020952,0.022731815,9.807582,0.0,-0.005497783,-0.0016798781,-88.387505,10.25625,42.2625,watch_1
26226134204929,0.35413775,0.022731815,9.807582,0.0,-0.005497783,-0.0016798781,-88.387505,10.25625,42.2625,watch_1
26226129242169,0.35413775,0.022731815,9.807582,0.0,-0.0042760535,-0.0004581486,-88.14375,10.96875,43.66875,watch_1
26226150319929,0.35413775,0.022731815,9.807582,0.0,-0.0042760535,-0.0004581486,-88.14375,10.96875,43.66875,watch_1
26226160319877,0.35413775,0.022731815,9.807582,0.0,-0.0042760535,-0.0004581486,-87.787506,12.8625,43.0875,watch_1
26226153278940,0.3397808,0.0035892338,9.778868,-0.0012217296,0.0006108648,-0.0004581486,-87.787506,12.8625,43.0875,watch_1
26226148316179,0.3397808,0.0035892338,9.778868,-0.0012217296,0.0006108648,-0.0004581486,-87.787506,12.8625,43.0875,watch_1
26226170319825,0.3397808,0.0035892338,9.778868,-0.0012217296,0.0006108648,-0.0004581486,-89.3625,10.668751,43.40625,watch_1
26226180319773,0.3397808,0.0035892338,9.778868,-0.0012217296,0.0006108648,-0.0004581486,-89.2125,9.4125,43.55625,watch_1
26226172351908,0.33499518,-0.0059820567,9.802796,0.0,0.0042760535,-0.0004581486,-89.2125,9.4125,43.55625,watch_1
26226167389148,0.33499518,-0.0059820567,9.802796,0.0,0.0042760535,-0.0004581486,-89.2125,9.4125,43.55625,watch_1
26226190319721,0.33499518,-0.0059820567,9.802796,0.0,0.0042760535,-0.0004581486,-89.8125,9.4875,42.600002,watch_1
26226200319669,0.33499518,-0.0059820567,9.802796,0.0,0.0042760535,-0.0004581486,-87.787506,8.418751,45.99375,watch_1
26226186463158,0.33020952,-0.010767702,9.802796,0.0,0.005497783,-0.0004581486,-87.787506,8.418751,45.99375,watch_1
26226191425919,0.33020952,-0.010767702,9.802796,0.0,0.005497783,-0.0004581486,-87.787506,8.418751,45.99375,watch_1
26226210319617,0.33020952,-0.010767702,9.802796,0.0,0.005497783,-0.0004581486,-89.981255,10.44375,43.5,watch_1
26226220319565,0.31106696,0.008374879,9.802796,0.0,0.005497783,-0.0004581486,-89.90625,8.8125,41.362503,watch_1
26226210498940,0.31106696,0.008374879,9.802796,0.0,0.0030543238,-0.0004581486,-89.90625,8.8125,41.362503,watch_1
26226205536179,0.31106696,0.008374879,9.802796,0.0,0.0030543238,-0.0004581486,-89.90625,8.8125,41.362503,watch_1
26226230319513,0.31106696,0.008374879,9.802796,0.0,0.0030543238,-0.0004581486,-90.01875,10.462501,42.1875,watch_1
26226229571908,0.32063824,0.008374879,9.802796,0.0,-0.0030543238,-0.0004581486,-89.26875,10.25625,43.612503,watch_1
26226224609148,0.32063824,0.008374879,9.802796,0.0,-0.0030543238,-0.0004581486,-89.26875,10.25625,43.612503,watch_1
26226240319460,0.32063824,0.008374879,9.802796,0.0,-0.0030543238,-0.0004581486,-89.26875,10.25625,43.612503,watch_1
26226250319408,0.32063824,0.008374879,9.802796,0.0,-0.0030543238,-0.0004581486,-89.9625,12.0,43.5,watch_1
26226248614929,0.33499518,0.008374879,9.807582,0.0,-0.005497783,-0.0004581486,-89.55,12.262501,40.331253,watch_1
26226260319356,0.33499518,0.008374879,9.807582,0.0,-0.005497783,-0.0004581486,-89.55,12.262501,40.331253,watch_1
26226243652169,0.33499518,0.008374879,9.807582,0.0,-0.005497783,-0.0004581486,-89.55,12.262501,40.331253,watch_1
26226270319304,0.33499518,0.008374879,9.807582,0.0,-0.005497783,-0.0004581486,-89.625,11.53125,40.818752,watch_1
26226267688940,0.33499518,0.008374879,9.802796,0.0,-0.0006108648,-0.0004581486,-89.625,11.53125,40.818752,watch_1
26226262726179,0.33499518,0.008374879,9.802796,0.0,-0.0006108648,-0.0004581486,-88.950005,12.187501,41.287502,watch_1
26226280319252,0.33499518,0.008374879,9.802796,0.0,-0.0006108648,-0.0004581486,-88.950005,12.187501,41.287502,watch_1
26226290319200,0.33499518,0.008374879,9.802796,0.0,-0.0006108648,-0.0004581486,-90.5625,12.4125,40.93125,watch_1
26226286761908,0.33499518,0.008374879,9.798011,0.0,0.0018325944,-0.0004581486,-90.5625,12.4125,40.93125,watch_1
26226281799148,0.33499518,0.008374879,9.798011,0.0,0.0018325944,-0.0004581486,-90.5625,12.4125,40.93125,watch_1
26226300319148,0.33499518,0.008374879,9.798011,0.0,0.0018325944,-0.0004581486,-89.193756,12.4125,41.943752,watch_1
26226310319096,0.33499518,0.008374879,9.798011,0.0,0.0018325944,-0.0004581486,-88.818756,11.90625,41.90625,watch_1
26226305835919,0.33499518,0.013160525,9.812367,0.0,0.0018325944,-0.0004581486,-88.818756,11.90625,41.90625,watch_1
26226300873158,0.33499518,0.013160525,9.812367,0.0,0.0006108648,-0.0004581486,-90.05625,11.625,41.2125,watch_1
26226320319044,0.33499518,0.013160525,9.812367,0.0,0.0006108648,-0.0004581486,-90.05625,11.625,41.2125,watch_1
26226330318992,0.33499518,0.013160525,9.812367,0.0,0.0006108648,-0.0004581486,-89.981255,12.01875,42.91875,watch_1
26226324908940,0.3397808,0.0035892338,9.798011,0.0,0.0006108648,-0.0004581486,-89.981255,12.01875,42.91875,watch_1
26226319946179,0.3397808,0.0035892338,9.798011,0.0,0.0006108648,-0.0004581486,-89.981255,12.01875,42.91875,watch_1
26226340318940,0.3397808,0.0035892338,9.798011,0.0,0.0006108648,-0.0004581486,-90.20625,13.012501,40.7625,watch_1
26226350318888,0.3397808,0.0035892338,9.798011,0.0,0.0006108648,-0.0004581486,-89.64375,11.25,40.85625,watch_1
26226339020190,0.31106696,0.013160525,9.788439,0.0,0.0042760535,-0.0004581486,-89.64375,11.25,40.85625,watch_1
26226343982950,0.31106696,0.013160525,9.788439,0.0,0.0042760535,-0.0004581486,-89.64375,11.25,40.85625,watch_1
26226360318835,0.31106696,0.013160525,9.788439,0.0,0.0042760535,-0.0004581486,-88.55625,11.6625,41.23125,watch_1
26226370318783,0.31106696,0.013160525,9.788439,0.0,0.0042760535,-0.0004581486,-88.818756,11.925,41.175003,watch_1
26226358093158,0.33020952,0.0035892338,9.788439,0.0,0.0006108648,-0.0004581486,-88.818756,11.925,41.175003,watch_1
26226363055919,0.33020952,0.0035892338,9.788439,0.0,0.0006108648,-0.0004581486,-88.818756,11.925,41.175003,watch_1
26226380318731,0.33020952,0.0035892338,9.788439,0.0,0.0006108648,-0.0004581486,-88.36875,10.875,39.881252,watch_1
26226390318679,0.33020952,0.0035892338,9.788439,0.0,0.0006108648,-0.0004581486,-89.756256,11.6625,40.95,watch_1
26226377167169,0.33499518,0.0035892338,9.798011,0.0,-0.0030543238,-0.0004581486,-89.756256,11.6625,40.95,watch_1
26226382129929,0.33499518,0.0035892338,9.798011,0.0,-0.0030543238,-0.0004581486,-89.756256,11.6625,40.95,watch_1
26226400318627,0.33499518,0.0035892338,9.798011,0.0,-0.0030543238,-0.0004581486,-90.05625,11.625,40.912502,watch_1
26226410318575,0.33499518,0.0035892338,9.798011,0.0,-0.0030543238,-0.0004581486,-90.262505,12.6,40.5,watch_1
26226401202950,0.3397808,0.008374879,9.812367,-0.0012217296,-0.0006108648,-0.0004581486,-90.262505,12.6,40.5,watch_1
26226396240190,0.3397808,0.008374879,9.812367,-0.0012217296,-0.0006108648,-0.0004581486,-90.262505,12.6,40.5,watch_1
26226420318523,0.3397808,0.008374879,9.812367,-0.0012217296,-0.0006108648,-0.0004581486,-89.006256,10.35,41.025,watch_1
26226415283158,0.33499518,-0.0059820567,9.802796,-0.0012217296,0.0018325944,-0.0004581486,-90.65625,12.95625,41.006252,watch_1
26226430318471,0.33499518,-0.0059820567,9.802796,-0.0012217296,0.0018325944,-0.0004581486,-90.65625,12.95625,41.006252,watch_1
26226420245919,0.33499518,-0.0059820567,9.802796,-0.0012217296,0.0018325944,-0.0004581486,-90.65625,12.95625,41.006252,watch_1
26226440318419,0.33499518,-0.0059820567,9.802796,-0.0012217296,0.0018325944,-0.0004581486,-90.7125,11.118751,40.74375,watch_1
26226434357169,0.3397808,-0.010767702,9.783653,0.0,0.0018325944,-0.0004581486,-90.7125,11.118751,40.74375,watch_1
26226450318367,0.3397808,-0.010767702,9.783653,0.0,0.0018325944,-0.0004581486,-88.668755,11.775001,42.075,watch_1
26226439319929,0.3397808,-0.010767702,9.783653,0.0,0.0018325944,-0.0004581486,-90.7125,11.118751,40.74375,watch_1
26226460318315,0.3397808,-0.010767702,9.783653,0.0,0.0018325944,-0.0004581486,-90.037506,12.075001,39.5625,watch_1
26226453430190,0.32063824,0.01794617,9.817153,0.0012217296,-0.0006108648,-0.0004581486,-88.55625,11.6625,41.5125,watch_1
26226470318263,0.32063824,0.01794617,9.817153,0.0012217296,-0.0006108648,-0.0004581486,-88.55625,11.6625,41.5125,watch_1
26226458392950,0.32063824,0.01794617,9.817153,0.0012217296,-0.0006108648,-0.0004581486,-90.037506,12.075001,39.5625,watch_1
26226480318210,0.32063824,0.01794617,9.817153,0.0012217296,-0.0006108648,-0.0004581486,-89.8125,12.4875,41.287502,watch_1
26226477466908,0.3397808,0.01794617,9.807582,0.0012217296,0.0006108648,-0.0004581486,-89.8125,12.4875,41.287502,watch_1
26226472504148,0.3397808,0.01794617,9.807582,0.0012217296,0.0006108648,-0.0004581486,-89.8125,12.4875,41.287502,watch_1
26226490318158,0.3397808,0.01794617,9.807582,0.0012217296,0.0006108648,-0.0004581486,-90.39375,11.2875,40.912502,watch_1
26226500318106,0.3397808,0.01794617,9.807582,0.0012217296,0.0006108648,-0.0004581486,-91.125,11.175,42.15,watch_1
26226496539929,0.33020952,0.008374879,9.807582,0.0,0.0018325944,-0.0004581486,-91.33125,12.168751,41.006252,watch_1
26226491577169,0.33020952,0.008374879,9.807582,0.0,0.0018325944,-0.0004581486,-91.33125,12.168751,41.006252,watch_1
26226510318054,0.33020952,0.008374879,9.807582,0.0,0.0018325944,-0.0004581486,-91.33125,12.168751,41.006252,watch_1
26226515613940,0.3397808,0.0035892338,9.802796,-0.0012217296,-0.0018325944,-0.0004581486,-88.59375,14.08125,40.987503,watch_1
26226510651179,0.3397808,0.0035892338,9.802796,-0.0012217296,-0.0018325944,-0.0004581486,-88.59375,14.08125,40.987503,watch_1
26226520318002,0.3397808,0.0035892338,9.802796,-0.0012217296,-0.0018325944,-0.0004581486,-88.59375,14.08125,40.987503,watch_1
26226530317950,0.3397808,0.0035892338,9.802796,-0.0012217296,-0.0018325944,-0.0004581486,-89.08125,12.31875,40.818752,watch_1
26226540317898,0.3397808,0.013160525,9.788439,-0.0012217296,-0.0018325944,-0.0004581486,-88.70625,12.918751,41.381252,watch_1
26226534686908,0.3397808,0.013160525,9.788439,-0.0012217296,-0.0018325944,-0.0004581486,-88.70625,12.918751,41.381252,watch_1
26226529724148,0.3397808,0.013160525,9.788439,0.0,-0.0042760535,-0.0004581486,-88.70625,12.918751,41.381252,watch_1
26226550317846,0.3397808,0.013160525,9.788439,0.0,-0.0042760535,-0.0004581486,-90.131256,12.168751,41.71875,watch_1
26226560317794,0.3397808,0.013160525,9.788439,0.0,-0.0042760535,-0.0004581486,-89.887505,11.775001,41.362503,watch_1
26226548798158,0.33020952,0.008374879,9.798011,0.0012217296,-0.0006108648,-0.0004581486,-89.925,11.493751,41.081253,watch_1
26226570317742,0.33020952,0.008374879,9.798011,0.0012217296,-0.0006108648,-0.0004581486,-89.925,11.493751,41.081253,watch_1
26226553760919,0.33020952,0.008374879,9.798011,0.0012217296,-0.0006108648,-0.0004581486,-89.925,11.493751,41.081253,watch_1
26226580317690,0.33020952,0.008374879,9.798011,0.0012217296,-0.0006108648,-0.0004581486,-89.925,11.175,43.162502,watch_1
26226567871179,0.34456646,0.013160525,9.812367,0.0,0.0030543238,-0.0004581486,-89.925,11.175,43.162502,watch_1
26226572833940,0.34456646,0.013160525,9.812367,0.0,0.0030543238,-0.0004581486,-89.925,11.175,43.162502,watch_1
26226590317638,0.34456646,0.013160525,9.812367,0.0,0.0030543238,-0.0004581486,-90.731255,12.243751,40.78125,watch_1
26226600317585,0.34456646,0.013160525,9.812367,0.0,0.0030543238,-0.0004581486,-89.700005,12.075001,41.643753,watch_1
26226586914148,0.33020952,0.01794617,9.798011,-0.0012217296,0.0030543238,-0.0004581486,-89.700005,12.075001,41.643753,watch_1
26226591876908,0.33020952,0.01794617,9.798011,-0.0012217296,0.0030543238,-0.0004581486,-89.700005,12.075001,41.643753,watch_1
26226610317533,0.33020952,0.01794617,9.798011,-0.0012217296,0.0030543238,-0.0004581486,-88.293755,11.2875,40.85625,watch_1
26226605988158,0.33020952,0.01794617,9.798011,-0.0012217296,0.0006108648,-0.0004581486,-90.1875,11.75625,40.74375,watch_1
26226620317481,0.33020952,0.01794617,9.798011,-0.0012217296,0.0006108648,-0.0004581486,-90.1875,11.75625,40.74375,watch_1
26226610950919,0.31585258,0.013160525,9.793225,-0.0012217296,0.0006108648,-0.0004581486,-90.1875,11.75625,40.74375,watch_1
26226630317429,0.31585258,0.013160525,9.793225,-0.0012217296,0.0006108648,-0.0004581486,-90.24375,12.58125,41.081253,watch_1
26226625061179,0.33020952,0.0035892338,9.798011,0.0,-0.0018325944,-0.0004581486,-90.24375,12.58125,41.081253,watch_1
26226630023940,0.33020952,0.0035892338,9.798011,0.0,-0.0018325944,-0.0004581486,-90.24375,12.58125,41.081253,watch_1
26226640317377,0.33020952,0.0035892338,9.798011,0.0,-0.0018325944,-0.0004581486,-90.037506,11.606251,41.943752,watch_1
26226650317325,0.33020952,0.0035892338,9.798011,0.0,-0.0018325944,-0.0004581486,-89.08125,12.31875,41.100002,watch_1
26226644135190,0.33020952,0.0035892338,9.798011,0.0,-0.0030543238,-0.0004581486,-90.84375,12.337501,42.6375,watch_1
26226660317273,0.33020952,0.0035892338,9.798011,0.0,-0.0030543238,-0.0004581486,-90.84375,12.337501,42.6375,watch_1
26226649097950,0.33499518,0.013160525,9.793225,0.0,-0.0030543238,-0.0004581486,-90.84375,12.337501,42.6375,watch_1
26226670317221,0.33499518,0.013160525,9.793225,0.0,-0.0030543238,-0.0004581486,-90.731255,12.243751,40.78125,watch_1
26226668170919,0.33499518,0.01794617,9.807582,0.0,-0.0006108648,-0.0004581486,-90.731255,12.243751,40.78125,watch_1
26226663208158,0.33499518,0.01794617,9.807582,0.0,-0.0006108648,-0.0004581486,-90.731255,12.243751,40.78125,watch_1
26226680317169,0.33499518,0.01794617,9.807582,0.0,-0.0006108648,-0.0004581486,-89.043755,9.900001,41.34375,watch_1
26226690317117,0.33499518,0.01794617,9.807582,0.0,-0.0006108648,-0.0004581486,-91.125,10.06875,41.381252,watch_1
26226687244929,0.34456646,0.008374879,9.802796,0.0,-0.0006108648,-0.0016798781,-91.125,10.06875,41.381252,watch_1
26226682282169,0.34456646,0.008374879,9.802796,0.0,-0.0006108648,-0.0016798781,-91.125,10.06875,41.381252,watch_1
26226700317065,0.34456646,0.008374879,9.802796,0.0,-0.0006108648,-0.0016798781,-90.5625,12.39375,41.662502,watch_1
26226710317013,0.34456646,0.008374879,9.802796,0.0,-0.0006108648,-0.0016798781,-88.631256,12.20625,42.037502,watch_1
26226706317950,0.3397808,0.008374879,9.807582,-0.0012217296,-0.0006108648,-0.0004581486,-88.631256,12.20625,42.037502,watch_1
26226701355190,0.3397808,0.008374879,9.807582,-0.0012217296,-0.0006108648,-0.0004581486,-88.631256,12.20625,42.037502,watch_1
26226720316960,0.3397808,0.008374879,9.807582,-0.0012217296,-0.0006108648,-0.0004581486,-88.0875,11.71875,41.568752,watch_1
26226730316908,0.3397808,0.008374879,9.807582,-0.0012217296,-0.0006108648,-0.0004581486,-88.293755,11.26875,41.4375,watch_1
26226725391908,0.32063824,0.008374879,9.802796,-0.0012217296,-0.0006108648,-0.0004581486,-88.293755,11.26875,41.4375,watch_1
26226720429148,0.32063824,0.008374879,9.802796,0.0,0.0018325944,-0.0004581486,-88.293755,11.26875,41.4375,watch_1
26226740316856,0.32063824,0.008374879,9.802796,0.0,0.0018325944,-0.0004581486,-90.1125,11.025001,41.7,watch_1
26226750316804,0.32063824,0.008374879,9.802796,0.0,0.0018325944,-0.0004581486,-89.68125,12.075001,42.225002,watch_1
26226744464929,0.32063824,0.0035892338,9.798011,0.0,0.0018325944,-0.0004581486,-89.68125,12.075001,42.225002,watch_1
26226739502169,0.32063824,0.0035892338,9.798011,0.0,0.0006108648,-0.0004581486,-89.68125,12.075001,42.225002,watch_1
26226760316752,0.32063824,0.0035892338,9.798011,0.0,0.0006108648,-0.0004581486,-89.86875,13.031251,42.393753,watch_1
26226763507950,0.32542387,-0.0011964113,9.798011,0.0,0.0006108648,-0.0004581486,-88.78125,10.762501,42.16875,watch_1
26226770316700,0.32063824,0.0035892338,9.798011,0.0,0.0006108648,-0.0004581486,-88.78125,10.762501,42.16875,watch_1
26226780316648,0.32542387,-0.0011964113,9.798011,0.0,0.0006108648,-0.0004581486,-87.84375,11.00625,43.125,watch_1
26226758545190,0.32542387,-0.0011964113,9.798011,0.0,0.0006108648,-0.0004581486,-87.84375,11.00625,43.125,watch_1
26226790316596,0.32542387,-0.0011964113,9.798011,0.0,0.0006108648,-0.0004581486,-89.15625,11.26875,42.9375,watch_1
26226777619148,0.32542387,0.01794617,9.807582,0.0,-0.0006108648,-0.0004581486,-89.15625,11.26875,42.9375,watch_1
26226782581908,0.32542387,0.01794617,9.807582,0.0,-0.0006108648,-0.0004581486,-89.15625,11.26875,42.9375,watch_1
26226800316544,0.32542387,0.01794617,9.807582,0.0,-0.0006108648,-0.0004581486,-89.137505,11.55,42.91875,watch_1
26226810316492,0.33020952,0.013160525,9.807582,0.0,-0.0006108648,-0.0004581486,-88.8375,10.181251,42.506252,watch_1
26226801654929,0.33020952,0.013160525,9.807582,0.0,-0.0006108648,-0.0004581486,-88.8375,10.181251,42.506252,watch_1
26226796692169,0.33020952,0.013160525,9.807582,-0.0012217296,-0.0018325944,-0.0004581486,-88.8375,10.181251,42.506252,watch_1
26226820316440,0.33020952,0.013160525,9.807582,-0.0012217296,-0.0018325944,-0.0004581486,-89.64375,12.675,40.85625,watch_1
26226830316388,0.33020952,0.013160525,9.807582,-0.0012217296,-0.0018325944,-0.0004581486,-90.09375,11.00625,43.0125,watch_1
26226820727950,0.34456646,0.008374879,9.802796,-0.0012217296,-0.0018325944,-0.0004581486,-90.09375,11.00625,43.0125,watch_1
26226815765190,0.34456646,0.008374879,9.802796,-0.0012217296,-0.0018325944,-0.0004581486,-90.09375,11.00625,43.0125,watch_1
26226840316335,0.34456646,0.008374879,9.802796,-0.0012217296,-0.0018325944,-0.0004581486,-89.49375,8.25,43.5,watch_1
26226834839148,0.34456646,0.022731815,9.793225,-0.0012217296,-0.0018325944,-0.0004581486,-87.1125,8.925,46.162502,watch_1
26226850316283,0.34456646,0.022731815,9.793225,-0.0012217296,-0.0018325944,-0.0004581486,-87.1125,8.925,46.162502,watch_1
26226839801908,0.34456646,0.022731815,9.793225,-0.0012217296,-0.0018325944,-0.0004581486,-87.1125,8.925,46.162502,watch_1
26226860316231,0.34456646,0.022731815,9.793225,-0.0012217296,-0.0018325944,-0.0004581486,-89.9625,9.3,44.2125,watch_1
26226858874929,0.33499518,0.013160525,9.807582,-0.0012217296,0.0018325944,-0.0004581486,-89.943756,9.3,44.49375,watch_1
26226870316179,0.33499518,0.013160525,9.807582,-0.0012217296,0.0018325944,-0.0004581486,-89.943756,9.3,44.49375,watch_1
26226853912169,0.33499518,0.013160525,9.807582,-0.0012217296,0.0018325944,-0.0004581486,-89.943756,9.3,44.49375,watch_1
26226880316127,0.33499518,0.013160525,9.807582,-0.0012217296,0.0018325944,-0.0004581486,-89.86875,10.35,42.375,watch_1
26226872986179,0.32063824,0.0035892338,9.802796,-0.0024434591,0.0042760535,-0.0004581486,-89.86875,10.35,42.375,watch_1
26226877948940,0.32063824,0.0035892338,9.802796,-0.0024434591,0.0042760535,-0.0004581486,-88.18125,10.70625,42.375,watch_1
26226890316075,0.32063824,0.0035892338,9.802796,-0.0024434591,0.0042760535,-0.0004581486,-88.18125,10.70625,42.375,watch_1
26226900316023,0.32063824,0.0035892338,9.802796,-0.0024434591,0.0042760535,-0.0004581486,-88.443756,9.1875,45.412502,watch_1
26226897021908,0.32063824,0.008374879,9.783653,-0.0024434591,0.0030543238,-0.0004581486,-88.443756,9.1875,45.412502,watch_1
26226892059148,0.32063824,0.008374879,9.783653,-0.0024434591,0.0030543238,-0.0004581486,-88.443756,9.1875,45.412502,watch_1
26226910315971,0.32063824,0.008374879,9.783653,-0.0024434591,0.0030543238,-0.0004581486,-88.350006,10.21875,44.30625,watch_1
26226920315919,0.32063824,0.008374879,9.783653,-0.0024434591,0.0030543238,-0.0004581486,-89.193756,9.39375,44.86875,watch_1
26226911133158,0.32063824,0.008374879,9.783653,0.0,-0.0030543238,-0.0004581486,-89.193756,9.39375,44.86875,watch_1
26226916095919,0.32063824,0.008374879,9.793225,0.0,-0.0030543238,-0.0004581486,-89.193756,9.39375,44.86875,watch_1
26226930315867,0.32063824,0.008374879,9.793225,0.0,-0.0030543238,-0.0004581486,-88.875,9.731251,43.85625,watch_1
26226940315815,0.32063824,0.008374879,9.793225,0.0,-0.0030543238,-0.0004581486,-88.21875,8.83125,44.025,watch_1
26226935138940,0.33499518,0.008374879,9.798011,0.0,-0.0030543238,-0.0004581486,-88.21875,8.83125,44.025,watch_1
26226930176179,0.33499518,0.008374879,9.798011,0.0,-0.0042760535,-0.0004581486,-88.21875,8.83125,44.025,watch_1
26226950315763,0.33499518,0.008374879,9.798011,0.0,-0.0042760535,-0.0004581486,-91.0875,10.03125,42.84375,watch_1
26226960315710,0.33499518,0.008374879,9.798011,0.0,-0.0042760535,-0.0004581486,-89.90625,10.06875,42.09375,watch_1
26226954211908,0.33499518,0.01794617,9.802796,0.0,-0.0042760535,-0.0004581486,-89.90625,10.06875,42.09375,watch_1
26226949249148,0.33499518,0.01794617,9.802796,0.0,-0.0006108648,-0.0004581486,-89.90625,10.06875,42.09375,watch_1
26226970315658,0.33499518,0.01794617,9.802796,0.0,-0.0006108648,-0.0004581486,-87.918755,10.44375,42.43125,watch_1
26226980315606,0.33499518,0.01794617,9.802796,0.0,-0.0006108648,-0.0004581486,-87.84375,9.58125,43.6875,watch_1
26226973285919,0.33020952,0.022731815,9.8219385,0.0,-0.0006108648,-0.0004581486,-87.84375,9.58125,43.6875,watch_1
26226968323158,0.33020952,0.022731815,9.8219385,0.0,0.0018325944,-0.0004581486,-87.84375,9.58125,43.6875,watch_1
26226990315554,0.33020952,0.022731815,9.8219385,0.0,0.0018325944,-0.0004581486,-89.26875,7.5750003,43.29375,watch_1
26227000315502,0.33020952,0.022731815,9.8219385,0.0,0.0018325944,-0.0004581486,-89.231255,12.1125,42.5625,watch_1
26226992358940,0.33499518,-0.0011964113,9.793225,-0.0024434591,0.0018325944,-0.0004581486,-89.231255,12.1125,42.5625,watch_1
26226987396179,0.33499518,-0.0011964113,9.793225,-0.0024434591,0.0018325944,-0.0004581486,-89.231255,12.1125,42.5625,watch_1
26227010315450,0.33499518,-0.0011964113,9.793225,-0.0024434591,0.0018325944,-0.0004581486,-89.606255,11.53125,41.41875,watch_1
26227020315398,0.33499518,-0.0011964113,9.793225,-0.0024434591,0.0018325944,-0.0004581486,-88.875,11.325001,41.943752,watch_1
26227011432950,0.32542387,0.0035892338,9.793225,-0.0012217296,0.0042760535,-0.0004581486,-88.875,11.325001,41.943752,watch_1
26227006470190,0.32542387,0.0035892338,9.793225,-0.0012217296,0.0042760535,-0.0004581486,-88.875,11.325001,41.943752,watch_1
26227030315346,0.32542387,0.0035892338,9.793225,-0.0012217296,0.0042760535,-0.0004581486,-89.7375,12.750001,43.0125,watch_1
26227025543158,0.32063824,0.01794617,9.812367,0.0012217296,-0.0006108648,-0.0004581486,-89.7375,12.750001,43.0125,watch_1
26227030505919,0.32063824,0.01794617,9.812367,0.0012217296,-0.0006108648,-0.0004581486,-89.7375,12.750001,43.0125,watch_1
26227040315294,0.32063824,0.01794617,9.812367,0.0012217296,-0.0006108648,-0.0004581486,-89.9625,12.31875,41.86875,watch_1
26227050315242,0.32063824,0.01794617,9.812367,0.0012217296,-0.0006108648,-0.0004581486,-90.881256,12.056251,41.943752,watch_1
26227049579929,0.32063824,0.022731815,9.807582,0.0012217296,-0.0006108648,-0.0004581486,-90.881256,12.056251,41.943752,watch_1
26227044617169,0.32063824,0.022731815,9.807582,0.0,-0.0042760535,-0.0004581486,-89.34375,13.968751,40.912502,watch_1
26227060315190,0.32063824,0.022731815,9.807582,0.0,-0.0042760535,-0.0004581486,-89.34375,13.968751,40.912502,watch_1
26227070315138,0.32063824,0.022731815,9.807582,0.0,-0.0042760535,-0.0004581486,-87.9375,11.587501,42.16875,watch_1
26227068652950,0.33020952,0.022731815,9.802796,0.0,-0.0042760535,-0.0004581486,-87.9375,11.587501,42.16875,watch_1
26227063690190,0.33020952,0.022731815,9.802796,-0.0024434591,-0.0018325944,-0.0004581486,-87.9375,11.587501,42.16875,watch_1
26227080315085,0.33020952,0.022731815,9.802796,-0.0024434591,-0.0018325944,-0.0004581486,-88.40625,12.95625,41.850002,watch_1
26227090315033,0.33020952,0.022731815,9.802796,-0.0024434591,-0.0018325944,-0.0004581486,-89.775,11.3625,41.7,watch_1
26227087726908,0.32063824,0.0035892338,9.774082,-0.0024434591,-0.0018325944,-0.0004581486,-89.775,11.3625,41.7,watch_1
26227082764148,0.32063824,0.0035892338,9.774082,-0.0024434591,0.0006108648,-0.0004581486,-88.8375,13.200001,40.893753,watch_1
26227100314981,0.32063824,0.0035892338,9.774082,-0.0024434591,0.0006108648,-0.0004581486,-88.8375,13.200001,40.893753,watch_1
26227110314929,0.32063824,0.0035892338,9.774082,-0.0024434591,0.0006108648,-0.0004581486,-88.93125,10.89375,41.98125,watch_1
26227106769929,0.33020952,-0.0011964113,9.798011,-0.0024434591,0.0006108648,-0.0004581486,-88.93125,10.89375,41.98125,watch_1
26227101807169,0.33020952,-0.0011964113,9.798011,-0.0012217296,0.0006108648,-0.0004581486,-88.93125,10.89375,41.98125,watch_1
26227120314877,0.33020952,-0.0011964113,9.798011,-0.0012217296,0.0006108648,-0.0004581486,-89.49375,12.843751,40.275,watch_1
26227130314825,0.33020952,-0.0011964113,9.798011,-0.0012217296,0.0006108648,-0.0004581486,-87.5625,12.356251,41.850002,watch_1
26227125842950,0.32542387,-0.010767702,9.774082,-0.0024434591,0.0006108648,-0.0004581486,-87.5625,12.356251,41.850002,watch_1
26227120880190,0.32542387,-0.010767702,9.774082,-0.0024434591,0.0006108648,-0.0004581486,-87.5625,12.356251,41.850002,watch_1
26227140314773,0.32542387,-0.010767702,9.774082,-0.0024434591,0.0006108648,-0.0004581486,-90.75,10.6875,41.081253,watch_1
26227150314721,0.32542387,-0.010767702,9.774082,-0.0024434591,0.0006108648,-0.0004581486,-89.71875,13.200001,41.662502,watch_1
26227144916908,0.32542387,0.01794617,9.793225,-0.0024434591,0.0006108648,-0.0004581486,-89.71875,13.200001,41.662502,watch_1
26227139954148,0.32542387,0.01794617,9.793225,0.0012217296,0.0006108648,0.00076358096,-89.71875,13.200001,41.662502,watch_1
26227160314669,0.32542387,0.01794617,9.793225,0.0012217296,0.0006108648,0.00076358096,-89.11875,11.868751,41.86875,watch_1
26227170314617,0.32542387,0.01794617,9.793225,0.0012217296,0.0006108648,0.00076358096,-89.850006,10.3125,43.6875,watch_1
26227163989929,0.32542387,0.03708875,9.812367,0.0012217296,0.0006108648,0.00076358096,-89.850006,10.3125,43.6875,watch_1
26227180314565,0.32542387,0.03708875,9.812367,0.0012217296,0.0030543238,-0.0004581486,-89.9625,10.40625,44.831253,watch_1
26227159027169,0.32542387,0.03708875,9.812367,0.0012217296,0.0030543238,-0.0004581486,-89.9625,10.40625,44.831253,watch_1
26227190314513,0.32542387,0.03708875,9.812367,0.0012217296,0.0030543238,-0.0004581486,-89.45625,8.212501,45.525,watch_1
26227183063940,0.32542387,0.032303106,9.798011,0.0012217296,0.0030543238,-0.0004581486,-89.45625,8.212501,45.525,watch_1
26227178101179,0.32542387,0.032303106,9.798011,0.0,-0.0006108648,-0.0016798781,-89.45625,8.212501,45.525,watch_1
26227200314460,0.32542387,0.032303106,9.798011,0.0,-0.0006108648,-0.0016798781,-89.45625,8.212501,45.525,watch_1
26227210314408,0.32542387,0.032303106,9.798011,0.0,-0.0006108648,-0.0016798781,-87.637505,9.712501,45.881252,watch_1
26227202136908,0.34456646,0.01794617,9.817153,0.0,-0.0006108648,-0.0016798781,-87.637505,9.712501,45.881252,watch_1
26227197174148,0.34456646,0.01794617,9.817153,-0.0024434591,-0.0042760535,-0.0016798781,-87.637505,9.712501,45.881252,watch_1
26227220314356,0.34456646,0.01794617,9.817153,-0.0024434591,-0.0042760535,-0.0016798781,-88.55625,8.175,45.487503,watch_1
26227230314304,0.34456646,0.01794617,9.817153,-0.0024434591,-0.0042760535,-0.0016798781,-87.5625,10.425,45.825,watch_1
26227216248158,0.34456646,0.01794617,9.817153,-0.0024434591,-0.0042760535,-0.0004581486,-87.5625,10.425,45.825,watch_1
26227221210919,0.3397808,-0.0059820567,9.807582,-0.0024434591,-0.0042760535,-0.0004581486,-87.5625,10.425,45.825,watch_1
26227240314252,0.3397808,-0.0059820567,9.807582,-0.0024434591,-0.0042760535,-0.0004581486,-87.84375,10.6875,44.756252,watch_1
26227235321179,0.3493521,-0.0059820567,9.802796,-0.0012217296,0.0018325944,-0.0004581486,-87.84375,10.6875,44.756252,watch_1
26227240283940,0.3493521,-0.0059820567,9.802796,-0.0012217296,0.0018325944,-0.0004581486,-87.84375,10.6875,44.756252,watch_1
26227250314200,0.3493521,-0.0059820567,9.802796,-0.0012217296,0.0018325944,-0.0004581486,-87.84375,10.6875,44.756252,watch_1
26227260314148,0.3493521,-0.0059820567,9.802796,-0.0012217296,0.0018325944,-0.0004581486,-88.950005,11.71875,43.350002,watch_1
26227259357950,0.33020952,-0.010767702,9.802796,0.0,0.0042760535,-0.0004581486,-88.950005,11.71875,43.350002,watch_1
26227254395190,0.33020952,-0.010767702,9.802796,0.0,0.0042760535,-0.0004581486,-88.950005,11.71875,43.350002,watch_1
26227270314096,0.33020952,-0.010767702,9.802796,0.0,0.0042760535,-0.0004581486,-89.100006,8.83125,44.79375,watch_1
26227280314044,0.33020952,-0.010767702,9.802796,0.0,0.0042760535,-0.0004581486,-89.100006,8.83125,44.79375,watch_1
26227290313992,0.32063824,0.022731815,9.793225,0.0012217296,0.0018325944,-0.0004581486,-89.49375,9.337501,44.831253,watch_1
26227273438158,0.32063824,0.022731815,9.793225,0.0012217296,0.0018325944,-0.0004581486,-89.49375,9.337501,44.831253,watch_1
26227278400919,0.32063824,0.022731815,9.793225,0.0012217296,0.0018325944,-0.0004581486,-89.49375,9.337501,44.831253,watch_1
26227300313940,0.32063824,0.022731815,9.793225,0.0012217296,0.0018325944,-0.0004581486,-88.18125,9.262501,43.6875,watch_1
26227297473940,0.32542387,0.032303106,9.807582,0.0,0.0018325944,-0.0004581486,-88.18125,9.262501,43.6875,watch_1
26227292511179,0.32542387,0.032303106,9.807582,0.0,0.0018325944,-0.0004581486,-88.18125,9.262501,43.6875,watch_1
26227310313888,0.32542387,0.032303106,9.807582,0.0,0.0018325944,-0.0004581486,-88.818756,8.25,46.912502,watch_1
26227320313835,0.32542387,0.032303106,9.807582,0.0,0.0018325944,-0.0004581486,-86.287506,6.7125,48.225002,watch_1
26227316547950,0.32063824,0.013160525,9.798011,0.0,0.0018325944,-0.0004581486,-86.287506,6.7125,48.225002,watch_1
26227311585190,0.32063824,0.013160525,9.798011,-0.0012217296,-0.0006108648,-0.0004581486,-86.287506,6.7125,48.225002,watch_1
26227330313783,0.32063824,0.013160525,9.798011,-0.0012217296,-0.0006108648,-0.0004581486,-88.350006,8.625,45.91875,watch_1
26227340313731,0.32063824,0.013160525,9.798011,-0.0012217296,-0.0006108648,-0.0004581486,-88.350006,8.625,45.91875,watch_1
26227335620919,0.32063824,0.0035892338,9.798011,-0.0012217296,-0.0042760535,-0.0004581486,-88.350006,8.625,45.91875,watch_1
26227330658158,0.32063824,0.0035892338,9.798011,-0.0012217296,-0.0042760535,-0.0004581486,-88.350006,8.625,45.91875,watch_1
26227350313679,0.32063824,0.0035892338,9.798011,-0.0012217296,-0.0042760535,-0.0004581486,-88.6875,7.0312505,45.881252,watch_1
26227360313627,0.32063824,0.0035892338,9.798011,-0.0012217296,-0.0042760535,-0.0004581486,-88.05,10.25625,44.325,watch_1
26227354694929,0.34456646,-0.025124637,9.783653,-0.0012217296,-0.0030543238,-0.0004581486,-88.05,10.25625,44.325,watch_1
26227349732169,0.34456646,-0.025124637,9.783653,-0.0012217296,-0.0030543238,-0.0004581486,-88.05,10.25625,44.325,watch_1
26227370313575,0.34456646,-0.025124637,9.783653,-0.0012217296,-0.0030543238,-0.0004581486,-88.65,7.8,43.050003,watch_1
26227380313523,0.34456646,-0.025124637,9.783653,-0.0012217296,-0.0030543238,-0.0004581486,-87.731255,9.01875,44.643753,watch_1
26227373767950,0.33499518,-0.0011964113,9.807582,0.0,0.0006108648,-0.0004581486,-87.731255,9.01875,44.643753,watch_1
26227368805190,0.33499518,-0.0011964113,9.807582,0.0,0.0006108648,-0.0004581486,-87.731255,9.01875,44.643753,watch_1
26227390313471,0.33499518,-0.0011964113,9.807582,0.0,0.0006108648,-0.0004581486,-89.850006,10.3125,44.11875,watch_1
26227400313419,0.33499518,-0.0011964113,9.807582,0.0,0.0006108648,-0.0004581486,-87.8625,9.28125,44.737503,watch_1
26227392841908,0.33020952,0.013160525,9.802796,0.0012217296,0.0030543238,-0.0004581486,-87.8625,9.28125,44.737503,watch_1
26227387879148,0.33020952,0.013160525,9.802796,0.0012217296,0.0030543238,-0.0004581486,-87.8625,9.28125,44.737503,watch_1
26227410313367,0.33020952,0.013160525,9.802796,0.0012217296,0.0030543238,-0.0004581486,-88.2375,10.44375,41.100002,watch_1
26227420313315,0.33020952,0.013160525,9.802796,0.0012217296,0.0030543238,-0.0004581486,-89.30625,9.50625,45.43125,watch_1
26227411914929,0.33020952,0.01794617,9.802796,0.0012217296,0.0030543238,-0.0004581486,-89.30625,9.50625,45.43125,watch_1
26227406952169,0.33020952,0.01794617,9.802796,0.0,0.0030543238,-0.0004581486,-89.30625,9.50625,45.43125,watch_1
26227430313263,0.33020952,0.01794617,9.802796,0.0,0.0030543238,-0.0004581486,-89.49375,9.337501,44.831253,watch_1
26227440313210,0.33020952,0.01794617,9.802796,0.0,0.0030543238,-0.0004581486,-88.668755,9.8625,45.75,watch_1
26227430988940,0.32063824,0.008374879,9.802796,0.0,0.0030543238,-0.0004581486,-88.668755,9.8625,45.75,watch_1
26227426026179,0.32063824,0.008374879,9.802796,-0.0012217296,0.0006108648,-0.0004581486,-88.668755,9.8625,45.75,watch_1
26227450313158,0.32063824,0.008374879,9.802796,-0.0012217296,0.0006108648,-0.0004581486,-89.53125,12.243751,41.79375,watch_1
26227450030919,0.32542387,0.008374879,9.798011,-0.0012217296,0.0006108648,-0.0004581486,-89.53125,12.243751,41.79375,watch_1
26227445068158,0.32542387,0.008374879,9.798011,-0.0024434591,-0.0018325944,-0.0004581486,-88.0875,11.700001,42.300003,watch_1
26227460313106,0.32542387,0.008374879,9.798011,-0.0024434591,-0.0018325944,-0.0004581486,-88.0875,11.700001,42.300003,watch_1
26227470313054,0.32542387,0.008374879,9.798011,-0.0024434591,-0.0018325944,-0.0004581486,-88.443756,9.50625,43.331253,watch_1
26227469104929,0.33020952,-0.0059820567,9.793225,-0.0012217296,-0.0030543238,-0.0004581486,-88.443756,9.50625,43.331253,watch_1
26227464142169,0.33020952,-0.0059820567,9.793225,-0.0012217296,-0.0030543238,-0.0004581486,-86.64375,10.70625,44.737503,watch_1
26227480313002,0.33020952,-0.0059820567,9.793225,-0.0012217296,-0.0030543238,-0.0004581486,-86.64375,10.70625,44.737503,watch_1
26227490312950,0.33020952,-0.0059820567,9.793225,-0.0012217296,-0.0030543238,-0.0004581486,-86.64375,10.70625,44.737503,watch_1
26227483215190,0.33020952,0.0035892338,9.802796,0.0012217296,-0.0018325944,-0.0004581486,-88.275,11.26875,42.16875,watch_1
26227488177950,0.33020952,0.0035892338,9.802796,0.0012217296,-0.0018325944,-0.0004581486,-88.275,11.26875,42.16875,watch_1
26227500312898,0.33020952,0.0035892338,9.802796,0.0012217296,-0.0018325944,-0.0004581486,-88.275,11.26875,42.16875,watch_1
26227510312846,0.33020952,0.0035892338,9.802796,0.0012217296,-0.0018325944,-0.0004581486,-88.275,11.56875,41.11875,watch_1
26227502289148,0.33020952,0.01794617,9.798011,0.0012217296,0.0006108648,-0.0004581486,-88.275,11.56875,41.11875,watch_1
26227507251908,0.33020952,0.01794617,9.798011,0.0012217296,0.0006108648,-0.0004581486,-88.275,11.56875,41.11875,watch_1
26227520312794,0.33020952,0.01794617,9.798011,0.0012217296,0.0006108648,-0.0004581486,-88.8375,10.181251,43.237503,watch_1
26227530312742,0.33020952,0.01794617,9.798011,0.0012217296,0.0006108648,-0.0004581486,-89.925,11.175,42.862503,watch_1
26227526324929,0.33499518,0.02751746,9.807582,0.0,0.0030543238,-0.0004581486,-89.925,11.175,42.862503,watch_1
26227521362169,0.33499518,0.02751746,9.807582,0.0,0.0030543238,-0.0004581486,-89.925,11.175,42.862503,watch_1
26227540312690,0.33499518,0.02751746,9.807582,0.0,0.0030543238,-0.0004581486,-88.125,8.418751,43.631252,watch_1
26227550312638,0.33499518,0.02751746,9.807582,0.0,0.0030543238,-0.0004581486,-88.74375,9.3,44.775,watch_1
26227545398940,0.32063824,0.013160525,9.798011,-0.0012217296,0.0018325944,-0.0004581486,-88.74375,9.3,44.775,watch_1
26227540436179,0.32063824,0.013160525,9.798011,-0.0012217296,0.0018325944,-0.0004581486,-88.74375,9.3,44.775,watch_1
26227560312585,0.32063824,0.013160525,9.798011,-0.0012217296,0.0018325944,-0.0004581486,-88.950005,10.293751,43.65,watch_1
26227570312533,0.32063824,0.013160525,9.798011,-0.0012217296,0.0018325944,-0.0004581486,-89.775,12.468751,43.050003,watch_1
26227564471908,0.31585258,0.0035892338,9.788439,-0.0012217296,0.0018325944,-0.0004581486,-89.775,12.468751,43.050003,watch_1
26227559509148,0.31585258,0.0035892338,9.788439,-0.0012217296,-0.0006108648,-0.0004581486,-89.775,12.468751,43.050003,watch_1
26227590312429,0.31585258,0.0035892338,9.788439,-0.0012217296,-0.0006108648,-0.0004581486,-90.543755,12.375001,42.24375,watch_1
26227580312481,0.31585258,0.0035892338,9.788439,-0.0012217296,-0.0006108648,-0.0004581486,-90.543755,12.375001,42.24375,watch_1
26227583545919,0.32063824,0.0035892338,9.793225,-0.0012217296,-0.0018325944,-0.0004581486,-89.756256,11.325001,43.0125,watch_1
26227600312377,0.32063824,0.0035892338,9.793225,-0.0012217296,-0.0018325944,-0.0004581486,-89.756256,11.325001,43.0125,watch_1
26227578583158,0.32063824,0.0035892338,9.793225,-0.0012217296,-0.0018325944,-0.0004581486,-89.756256,11.325001,43.0125,watch_1
26227610312325,0.32063824,0.0035892338,9.793225,-0.0012217296,-0.0018325944,-0.0004581486,-90.24375,9.5625,43.425003,watch_1
26227597656179,0.33020952,0.013160525,9.798011,0.0,-0.0018325944,-0.0004581486,-90.24375,9.5625,43.425003,watch_1
26227602618940,0.33020952,0.013160525,9.798011,0.0,-0.0018325944,-0.0004581486,-90.24375,9.5625,43.425003,watch_1
26227620312273,0.33020952,0.013160525,9.798011,0.0,-0.0018325944,-0.0004581486,-88.36875,8.306251,47.25,watch_1
26227630312221,0.33499518,0.013160525,9.812367,0.0,-0.0018325944,-0.0004581486,-88.36875,8.306251,47.25,watch_1
26227621661908,0.33499518,0.013160525,9.812367,0.0,-0.0018325944,-0.0004581486,-88.36875,8.306251,47.25,watch_1
26227640312169,0.33499518,0.013160525,9.812367,0.0,0.0006108648,-0.0004581486,-87.3375,6.9,46.331253,watch_1
26227616699148,0.33499518,0.013160525,9.812367,0.0,0.0006108648,-0.0004581486,-87.3375,6.9,46.331253,watch_1
26227650312117,0.33499518,0.013160525,9.812367,0.0,0.0006108648,-0.0004581486,-87.01875,11.53125,43.74375,watch_1
26227640735919,0.3397808,0.01794617,9.807582,0.0,0.0018325944,-0.0004581486,-87.01875,11.53125,43.74375,watch_1
26227635773158,0.3397808,0.01794617,9.807582,0.0,0.0018325944,-0.0004581486,-87.01875,11.53125,43.74375,watch_1
26227660312065,0.3397808,0.01794617,9.807582,0.0,0.0018325944,-0.0004581486,-90.24375,7.6687503,46.068752,watch_1
26227659808940,0.32542387,0.013160525,9.798011,0.0,0.0018325944,-0.0004581486,-90.24375,7.6687503,46.068752,watch_1
26227654846179,0.32542387,0.013160525,9.798011,-0.0012217296,0.0018325944,-0.0004581486,-87.131256,7.8375,44.100002,watch_1
26227670312013,0.32542387,0.013160525,9.798011,-0.0012217296,0.0018325944,-0.0004581486,-87.131256,7.8375,44.100002,watch_1
26227680311960,0.32542387,0.013160525,9.798011,-0.0012217296,0.0018325944,-0.0004581486,-87.84375,10.6875,44.756252,watch_1
26227678882950,0.32542387,0.0035892338,9.798011,-0.0012217296,0.0018325944,-0.0004581486,-87.84375,10.6875,44.756252,watch_1
26227673920190,0.32542387,0.0035892338,9.798011,-0.0012217296,0.0006108648,-0.0004581486,-89.137505,8.868751,42.75,watch_1
26227690311908,0.32542387,0.0035892338,9.798011,-0.0012217296,0.0006108648,-0.0004581486,-89.137505,8.868751,42.75,watch_1
26227700311856,0.32542387,0.0035892338,9.798011,-0.0012217296,0.0006108648,-0.0004581486,-90.262505,12.6,40.5,watch_1
26227692993158,0.33020952,-0.0059820567,9.802796,0.0,-0.0006108648,-0.0004581486,-90.262505,12.6,40.5,watch_1
26227697955919,0.33020952,-0.0059820567,9.802796,0.0,-0.0006108648,-0.0004581486,-90.262505,12.6,40.5,watch_1
26227710311804,0.33020952,-0.0059820567,9.802796,0.0,-0.0006108648,-0.0004581486,-88.96875,11.7375,42.3375,watch_1
26227720311752,0.33020952,-0.0059820567,9.802796,0.0,-0.0006108648,-0.0004581486,-89.71875,13.51875,40.18125,watch_1
26227717029929,0.33020952,0.008374879,9.802796,0.0,-0.0018325944,-0.0004581486,-89.71875,13.51875,40.18125,watch_1
26227712067169,0.33020952,0.008374879,9.802796,0.0,-0.0018325944,-0.0004581486,-89.71875,13.51875,40.18125,watch_1
26227730311700,0.33020952,0.008374879,9.802796,0.0,-0.0018325944,-0.0004581486,-89.5875,11.175,44.2125,watch_1
26227740311648,0.33020952,0.008374879,9.802796,0.0,-0.0018325944,-0.0004581486,-89.925,11.493751,41.081253,watch_1
26227736102950,0.33499518,0.013160525,9.807582,0.0,-0.0018325944,-0.0016798781,-89.925,11.493751,41.081253,watch_1
26227731140190,0.33499518,0.013160525,9.807582,0.0,-0.0018325944,-0.0016798781,-89.925,11.493751,41.081253,watch_1
26227750311596,0.33499518,0.013160525,9.807582,0.0,-0.0018325944,-0.0016798781,-90.39375,11.2875,40.912502,watch_1
26227760311544,0.33499518,0.013160525,9.807582,0.0,-0.0018325944,-0.0016798781,-89.381256,13.5375,41.23125,watch_1
26227755176908,0.35413775,0.013160525,9.817153,0.0,-0.0018325944,-0.0016798781,-89.381256,13.5375,41.23125,watch_1
26227750214148,0.35413775,0.013160525,9.817153,0.0,-0.0006108648,-0.0016798781,-89.381256,13.5375,41.23125,watch_1
26227770311492,0.35413775,0.013160525,9.817153,0.0,-0.0006108648,-0.0016798781,-90.9,12.056251,41.643753,watch_1
26227780311440,0.35413775,0.013160525,9.817153,0.0,-0.0006108648,-0.0016798781,-89.0625,12.3,41.831253,watch_1
26227769287169,0.33499518,0.01794617,9.793225,-0.0012217296,0.0018325944,-0.0004581486,-89.0625,12.3,41.831253,watch_1
26227774249929,0.33499518,0.01794617,9.793225,-0.0012217296,0.0018325944,-0.0004581486,-89.0625,12.3,41.831253,watch_1
26227790311388,0.33499518,0.01794617,9.793225,-0.0012217296,0.0018325944,-0.0004581486,-88.33125,11.325001,38.8125,watch_1
26227800311335,0.33020952,-0.0011964113,9.802796,-0.0012217296,0.0018325944,-0.0004581486,-90.84375,12.656251,40.575,watch_1
26227793292950,0.33020952,-0.0011964113,9.802796,-0.0012217296,0.0018325944,-0.0004581486,-90.84375,12.656251,40.575,watch_1
26227788330190,0.33020952,-0.0011964113,9.802796,-0.0012217296,0.0018325944,-0.0004581486,-90.3375,11.55,42.1875,watch_1
26227810311283,0.33020952,-0.0011964113,9.802796,-0.0012217296,0.0018325944,-0.0004581486,-90.3375,11.55,42.1875,watch_1
26227820311231,0.33020952,-0.0011964113,9.802796,-0.0012217296,0.0018325944,-0.0004581486,-89.25,12.150001,40.95,watch_1
26227812366908,0.31585258,-0.0011964113,9.802796,-0.0012217296,0.0018325944,-0.0004581486,-89.25,12.150001,40.95,watch_1
26227807404148,0.31585258,-0.0011964113,9.802796,-0.0012217296,0.0006108648,-0.0004581486,-89.68125,13.481251,41.943752,watch_1
26227830311179,0.31585258,-0.0011964113,9.802796,-0.0012217296,0.0006108648,-0.0004581486,-89.68125,13.481251,41.943752,watch_1
26227840311127,0.33020952,0.013160525,9.774082,-0.0012217296,0.0006108648,-0.0004581486,-89.4,10.70625,41.081253,watch_1
26227831439929,0.33020952,0.013160525,9.774082,-0.0012217296,0.0006108648,-0.0004581486,-89.4,10.70625,41.081253,watch_1
26227826477169,0.33020952,0.013160525,9.774082,0.0,-0.0006108648,-0.0004581486,-89.4,10.70625,41.081253,watch_1
26227850311075,0.33020952,0.013160525,9.774082,0.0,-0.0006108648,-0.0004581486,-91.5,10.40625,42.46875,watch_1
26227845551179,0.33020952,0.01794617,9.826724,0.0,0.0030543238,-0.0004581486,-91.5,10.40625,42.46875,watch_1
26227850513940,0.33020952,0.01794617,9.826724,0.0,0.0030543238,-0.0004581486,-91.5,10.40625,42.46875,watch_1
26227860311023,0.33020952,0.01794617,9.826724,0.0,0.0030543238,-0.0004581486,-87.4875,13.387501,40.0125,watch_1
26227870310971,0.33020952,0.01794617,9.826724,0.0,0.0030543238,-0.0004581486,-90.5625,12.075001,42.693752,watch_1
26227864624148,0.33020952,0.01794617,9.826724,-0.0012217296,0.01282816,-0.0004581486,-89.887505,11.775001,41.0625,watch_1
26227880310919,0.33020952,0.01794617,9.826724,-0.0012217296,0.01282816,-0.0004581486,-89.887505,11.775001,41.0625,watch_1
26227869586908,0.33020952,0.008374879,9.778868,-0.0012217296,0.01282816,-0.0004581486,-89.887505,11.775001,41.0625,watch_1
26227890310867,0.33020952,0.008374879,9.778868,-0.0012217296,0.01282816,-0.0004581486,-89.11875,10.44375,42.15,watch_1
26227883698158,0.3397808,0.008374879,9.826724,-0.0012217296,0.009162972,-0.0004581486,-89.11875,10.44375,42.15,watch_1
26227888660919,0.3397808,0.008374879,9.826724,-0.0012217296,0.009162972,-0.0004581486,-89.11875,10.44375,42.15,watch_1
26227900310815,0.3397808,0.008374879,9.826724,-0.0012217296,0.009162972,-0.0004581486,-88.74375,11.212501,41.4,watch_1
26227910310763,0.3397808,0.008374879,9.826724,-0.0012217296,0.009162972,-0.0004581486,-89.887505,13.031251,42.112503,watch_1
26227907733940,0.32542387,-0.0011964113,9.802796,-0.0012217296,0.007941242,-0.0004581486,-89.887505,13.031251,42.112503,watch_1
26227902771179,0.32542387,-0.0011964113,9.802796,-0.0012217296,0.007941242,-0.0004581486,-89.887505,13.031251,42.112503,watch_1
26227920310710,0.32542387,-0.0011964113,9.802796,-0.0012217296,0.007941242,-0.0004581486,-90.637505,11.6625,41.71875,watch_1
26227930310658,0.32542387,-0.0011964113,9.802796,-0.0012217296,0.007941242,-0.0004581486,-88.762505,11.25,40.0875,watch_1
26227921845190,0.31585258,0.0035892338,9.764511,0.0,0.005497783,-0.0004581486,-88.762505,11.25,40.0875,watch_1
26227926807950,0.31585258,0.0035892338,9.764511,0.0,0.005497783,-0.0004581486,-88.762505,11.25,40.0875,watch_1
26227940310606,0.31585258,0.0035892338,9.764511,0.0,0.005497783,-0.0004581486,-89.90625,11.475,42.112503,watch_1
26227950310554,0.31585258,0.0035892338,9.764511,0.0,0.005497783,-0.0004581486,-88.9875,11.7375,41.756252,watch_1
26227940918158,0.31585258,0.013160525,9.8219385,-0.0012217296,-0.0018325944,-0.0004581486,-88.9875,11.7375,41.756252,watch_1
26227945880919,0.31585258,0.013160525,9.8219385,-0.0012217296,-0.0018325944,-0.0004581486,-88.9875,11.7375,41.756252,watch_1
26227960310502,0.31585258,0.013160525,9.8219385,-0.0012217296,-0.0018325944,-0.0004581486,-88.70625,11.475,42.393753,watch_1
26227970310450,0.31585258,0.013160525,9.8219385,-0.0012217296,-0.0018325944,-0.0004581486,-89.0625,11.19375,40.78125,watch_1
26227964923940,0.31585258,-0.0011964113,9.735797,-0.0012217296,-0.0018325944,-0.0004581486,-89.0625,11.19375,40.78125,watch_1
26227959961179,0.31585258,-0.0011964113,9.735797,-0.0024434591,-0.0018325944,-0.0004581486,-89.0625,11.19375,40.78125,watch_1
26227980310398,0.31585258,-0.0011964113,9.735797,-0.0024434591,-0.0018325944,-0.0004581486,-89.756256,11.325001,43.0125,watch_1
26227990310346,0.31585258,-0.0011964113,9.735797,-0.0024434591,-0.0018325944,-0.0004581486,-90.84375,10.9125,42.487503,watch_1
26227979035190,0.32063824,0.008374879,9.850653,-0.0012217296,0.0018325944,-0.0004581486,-90.975006,11.3625,41.268753,watch_1
26228000310294,0.32063824,0.008374879,9.850653,-0.0012217296,0.0018325944,-0.0004581486,-90.975006,11.3625,41.268753,watch_1
26227983997950,0.32063824,0.008374879,9.850653,-0.0012217296,0.0018325944,-0.0004581486,-90.975006,11.3625,41.268753,watch_1
26228010310242,0.32063824,0.008374879,9.850653,-0.0012217296,0.0018325944,-0.0004581486,-89.68125,10.81875,41.475002,watch_1
26228003070919,0.33020952,0.008374879,9.836296,-0.0012217296,0.0018325944,-0.0004581486,-89.68125,10.81875,41.475002,watch_1
26227998108158,0.33020952,0.008374879,9.836296,0.0,0.0006108648,-0.0004581486,-89.68125,10.81875,41.475002,watch_1
26228020310190,0.33020952,0.008374879,9.836296,0.0,0.0006108648,-0.0004581486,-88.33125,10.837501,42.206253,watch_1
26228030310138,0.3589234,0.013160525,9.83151,0.0,0.0006108648,-0.0004581486,-89.418755,13.2375,41.7,watch_1
26228022144929,0.3589234,0.013160525,9.83151,0.0,0.0006108648,-0.0004581486,-89.418755,13.2375,41.7,watch_1
26228017182169,0.3589234,0.013160525,9.83151,0.0,-0.007941242,-0.0004581486,-89.418755,13.2375,41.7,watch_1
26228040310085,0.3589234,0.013160525,9.83151,0.0,-0.007941242,-0.0004581486,-90.225006,12.562501,42.112503,watch_1
26228050310033,0.3589234,0.013160525,9.83151,0.0,-0.007941242,-0.0004581486,-89.662506,12.375001,41.175003,watch_1
26228041217950,0.41156548,0.008374879,9.75494,0.0,-0.007941242,-0.0004581486,-89.662506,12.375001,41.175003,watch_1
26228036255190,0.41156548,0.008374879,9.75494,-0.013439025,0.08735366,0.006872229,-89.662506,12.375001,41.175003,watch_1
26228060309981,0.41156548,0.008374879,9.75494,-0.013439025,0.08735366,0.006872229,-89.7375,11.64375,41.68125,watch_1
26228060290919,0.34456646,0.008374879,9.769297,-0.0097738365,0.29382595,0.015424335,-89.7375,11.64375,41.68125,watch_1
26228055328158,0.34456646,0.008374879,9.769297,-0.0097738365,0.29382595,0.015424335,-89.7375,11.64375,41.68125,watch_1
26228070309929,0.34456646,0.008374879,9.769297,-0.0097738365,0.29382595,0.015424335,-89.756256,12.76875,42.0,watch_1
26228080309877,0.34456646,0.008374879,9.769297,-0.0097738365,0.29382595,0.015424335,-88.856255,11.306251,42.975002,watch_1
26228079364929,0.19142582,0.0035892338,9.759726,0.0097738365,0.37934703,0.03497201,-88.856255,11.306251,42.975002,watch_1
26228074402169,0.19142582,0.0035892338,9.759726,0.0097738365,0.37934703,0.03497201,-88.856255,11.306251,42.975002,watch_1
26228090309825,0.19142582,0.0035892338,9.759726,0.0097738365,0.37934703,0.03497201,-88.912506,12.4875,40.66875,watch_1
26228100309773,0.19142582,0.0035892338,9.759726,0.0097738365,0.37934703,0.03497201,-88.912506,12.4875,40.66875,watch_1
26228098437950,0.26799613,-0.0011964113,9.946365,0.0097738365,0.37934703,0.03497201,-88.912506,12.4875,40.66875,watch_1
26228093475190,0.26799613,-0.0011964113,9.946365,0.014660755,0.19730933,0.03375028,-88.912506,12.4875,40.66875,watch_1
26228110309721,0.26799613,-0.0011964113,9.946365,0.014660755,0.19730933,0.03375028,-89.11875,13.44375,40.55625,watch_1
26228117511908,-0.05742774,-0.0059820567,9.673584,-0.068416856,-0.083688475,0.031306818,-87.9,12.337501,40.068752,watch_1
26228112549148,-0.05742774,-0.0059820567,9.673584,-0.068416856,-0.083688475,0.031306818,-87.9,12.337501,40.068752,watch_1
26228130309617,-0.05742774,-0.0059820567,9.673584,-0.068416856,-0.083688475,0.031306818,-87.9,12.337501,40.068752,watch_1
26228120309669,0.26799613,-0.0011964113,9.946365,0.014660755,0.19730933,0.03375028,-88.537506,13.2375,40.93125,watch_1
26228140309565,-0.05742774,-0.0059820567,9.673584,-0.068416856,-0.083688475,0.031306818,-89.25,12.468751,39.61875,watch_1
26228136554929,0.07178468,0.02751746,9.83151,0.013439025,-0.01282816,0.011759147,-89.25,12.468751,39.61875,watch_1
26228131592169,0.07178468,0.02751746,9.83151,0.013439025,-0.01282816,0.011759147,-89.25,12.468751,39.61875,watch_1
26228150309513,0.07178468,0.02751746,9.83151,0.013439025,-0.01282816,0.011759147,-89.137505,11.90625,40.125,watch_1
26228160309460,0.07178468,0.02751746,9.83151,0.013439025,-0.01282816,0.011759147,-90.0,10.78125,41.15625,watch_1
26228155627950,0.22013968,0.022731815,9.855438,0.013439025,-0.01282816,0.011759147,-90.0,10.78125,41.15625,watch_1
26228150665190,0.22013968,0.022731815,9.855438,0.010995566,-0.102014415,0.0044287695,-90.0,10.78125,41.15625,watch_1
26228170309408,0.22013968,0.022731815,9.855438,0.010995566,-0.102014415,0.0044287695,-88.2375,10.44375,41.381252,watch_1
26228174701908,0.2536392,-0.0011964113,9.774082,0.010995566,-0.102014415,0.0044287695,-88.2375,10.44375,41.381252,watch_1
26228169739148,0.2536392,-0.0011964113,9.774082,-0.008552107,-0.017715078,0.006872229,-88.2375,10.44375,41.381252,watch_1
26228180309356,0.2536392,-0.0011964113,9.774082,-0.008552107,-0.017715078,0.006872229,-89.26875,12.168751,39.6375,watch_1
26228190309304,0.2536392,-0.0011964113,9.774082,-0.008552107,-0.017715078,0.006872229,-90.01875,10.8,40.125,watch_1
26228200309252,0.2536392,-0.0011964113,9.774082,-0.008552107,-0.017715078,0.006872229,-90.01875,10.8,40.125,watch_1
26228193774929,0.15792629,0.022731815,9.83151,-0.008552107,-0.017715078,0.006872229,-90.01875,10.8,40.125,watch_1
26228188812169,0.15792629,0.022731815,9.83151,-0.0012217296,0.06291907,0.0056504994,-90.01875,10.8,40.125,watch_1
26228210309200,0.15792629,0.022731815,9.83151,-0.0012217296,0.06291907,0.0056504994,-88.425,12.993751,39.80625,watch_1
26228220309148,0.15792629,0.022731815,9.83151,-0.0012217296,0.06291907,0.0056504994,-88.18125,12.281251,41.362503,watch_1
26228212848940,0.23928227,-0.020338992,9.774082,-0.0012217296,0.06291907,0.0056504994,-88.18125,12.281251,41.362503,watch_1
26228230309096,0.23928227,-0.020338992,9.774082,-0.035430156,0.031154104,0.008093959,-88.162506,12.58125,40.3125,watch_1
26228207886179,0.23928227,-0.020338992,9.774082,-0.035430156,0.031154104,0.008093959,-88.162506,12.58125,40.3125,watch_1
26228240309044,0.23928227,-0.020338992,9.774082,-0.0048869182,0.1301142,0.010537418,-87.24375,11.4375,40.237503,watch_1
26228226959148,0.23928227,-0.020338992,9.774082,-0.0048869182,0.1301142,0.010537418,-87.24375,11.4375,40.237503,watch_1
26228231921908,0.13878371,-0.029910283,9.731011,-0.0048869182,0.1301142,0.010537418,-87.24375,11.4375,40.237503,watch_1
26228250308992,0.13878371,-0.029910283,9.731011,-0.0048869182,0.1301142,0.010537418,-87.95625,11.606251,41.15625,watch_1
26228260308940,0.13878371,-0.029910283,9.731011,-0.0048869182,0.1301142,0.010537418,-89.287506,10.275001,42.300003,watch_1
26228250995919,-0.019142581,0.041874398,9.845867,-0.0048869182,0.1301142,0.010537418,-89.287506,10.275001,42.300003,watch_1
26228246033158,-0.019142581,0.041874398,9.845867,0.032986697,0.005497783,0.0019853106,-89.287506,10.275001,42.300003,watch_1
26228270308888,-0.019142581,0.041874398,9.845867,0.032986697,0.005497783,0.0019853106,-89.700005,12.093751,40.912502,watch_1
26228270068940,0.20578274,0.0035892338,9.836296,-0.037873615,-0.27672175,-0.016340632,-89.700005,12.093751,40.912502,watch_1
26228265106179,0.20578274,0.0035892338,9.836296,-0.037873615,-0.27672175,-0.016340632,-88.03125,12.468751,40.48125,watch_1
26228280308835,0.20578274,0.0035892338,9.836296,-0.037873615,-0.27672175,-0.016340632,-88.03125,12.468751,40.48125,watch_1
26228290308783,0.20578274,0.0035892338,9.836296,-0.037873615,-0.27672175,-0.016340632,-88.950005,12.187501,41.287502,watch_1
26228289142950,0.33499518,-0.0634098,9.745368,-0.067195125,-0.20708317,-0.029779658,-88.950005,12.187501,41.287502,watch_1
26228284180190,0.33499518,-0.0634098,9.745368,-0.067195125,-0.20708317,-0.029779658,-91.275,11.306251,41.25,watch_1
26228300308731,0.33499518,-0.0634098,9.745368,-0.067195125,-0.20708317,-0.029779658,-91.275,11.306251,41.25,watch_1
26228310308679,0.33499518,-0.0634098,9.745368,-0.067195125,-0.20708317,-0.029779658,-88.443756,9.825001,42.0,watch_1
26228308215919,0.29192436,-0.015553347,9.812367,-0.067195125,-0.20708317,-0.029779658,-88.443756,9.825001,42.0,watch_1
26228303253158,0.29192436,-0.015553347,9.812367,0.012217295,-0.060475614,-0.007788526,-89.137505,11.56875,42.487503,watch_1
26228320308627,0.29192436,-0.015553347,9.812367,0.012217295,-0.060475614,-0.007788526,-89.137505,11.56875,42.487503,watch_1
26228330308575,0.29192436,-0.015553347,9.812367,0.012217295,-0.060475614,-0.007788526,-88.8375,10.181251,42.506252,watch_1
26228322296179,0.2440679,-0.0011964113,9.845867,-0.0036651888,0.010384701,0.0019853106,-88.8375,10.181251,42.506252,watch_1
26228327258940,0.2440679,-0.0011964113,9.845867,-0.0036651888,0.010384701,0.0019853106,-88.8375,10.181251,42.506252,watch_1
26228340308523,0.2440679,-0.0011964113,9.845867,-0.0036651888,0.010384701,0.0019853106,-89.137505,11.56875,42.1875,watch_1
26228350308471,0.2440679,-0.0011964113,9.845867,-0.0036651888,0.010384701,0.0019853106,-87.95625,11.606251,41.456253,watch_1
26228341370190,0.23928227,-0.020338992,9.783653,-0.02687805,0.011606431,0.00320704,-89.71875,12.1125,39.600002,watch_1
26228360308419,0.23928227,-0.020338992,9.783653,-0.02687805,0.011606431,0.00320704,-89.71875,12.1125,39.600002,watch_1
26228346332950,0.23928227,-0.020338992,9.783653,-0.02687805,0.011606431,0.00320704,-89.71875,12.1125,39.600002,watch_1
26228370308367,0.23928227,-0.020338992,9.783653,-0.02687805,0.011606431,0.00320704,-86.86875,11.700001,43.3125,watch_1
26228365405919,0.25842485,-0.025124637,9.802796,-0.015882485,0.0030543238,0.0044287695,-86.86875,11.700001,43.3125,watch_1
26228360443158,0.25842485,-0.025124637,9.802796,-0.015882485,0.0030543238,0.0044287695,-86.86875,11.700001,43.3125,watch_1
26228380308315,0.25842485,-0.025124637,9.802796,-0.015882485,0.0030543238,0.0044287695,-89.08125,10.725,42.7125,watch_1
26228390308263,0.25842485,-0.025124637,9.802796,-0.015882485,0.0030543238,0.0044287695,-88.068756,11.700001,43.03125,watch_1
26228384479929,0.16749759,-0.06819545,9.745368,-0.0097738365,-0.037262753,0.011759147,-88.068756,11.700001,43.03125,watch_1
26228379517169,0.16749759,-0.06819545,9.745368,-0.0097738365,-0.037262753,0.011759147,-88.068756,11.700001,43.03125,watch_1
26228400308210,0.16749759,-0.06819545,9.745368,-0.0097738365,-0.037262753,0.011759147,-88.40625,12.95625,41.850002,watch_1
26228410308158,0.16749759,-0.06819545,9.745368,-0.0097738365,-0.037262753,0.011759147,-89.981255,10.762501,41.8875,watch_1
26228403552950,0.17228323,-0.12083755,10.056436,-0.0097738365,-0.037262753,0.011759147,-89.981255,10.762501,41.8875,watch_1
26228398590190,0.17228323,-0.12083755,10.056436,-0.019547673,-0.24617851,0.019089524,-89.981255,10.762501,41.8875,watch_1
26228420308106,0.17228323,-0.12083755,10.056436,-0.019547673,-0.24617851,0.019089524,-89.568756,11.8125,41.831253,watch_1
26228430308054,0.17228323,-0.12083755,10.056436,-0.019547673,-0.24617851,0.019089524,-89.662506,12.356251,41.60625,watch_1
26228417664148,0.4881358,0.0849452,9.687941,-0.16859868,-0.32314748,0.019089524,-89.662506,12.356251,41.60625,watch_1
26228422626908,0.4881358,0.0849452,9.687941,-0.16859868,-0.32314748,0.019089524,-89.662506,12.356251,41.60625,watch_1
26228440308002,0.4881358,0.0849452,9.687941,-0.16859868,-0.32314748,0.019089524,-89.193756,10.81875,44.006252,watch_1
26228450307950,0.56470615,-0.08733802,9.620942,-0.16859868,-0.32314748,0.019089524,-86.887505,9.825001,45.225002,watch_1
26228441699929,0.56470615,-0.08733802,9.620942,-0.16859868,-0.32314748,0.019089524,-86.887505,9.825001,45.225002,watch_1
26228436737169,0.56470615,-0.08733802,9.620942,-0.067195125,-0.17776164,0.016646065,-86.887505,9.825001,45.225002,watch_1
26228460307898,0.56470615,-0.08733802,9.620942,-0.067195125,-0.17776164,0.016646065,-88.78125,10.78125,41.86875,watch_1
26228470307846,0.56470615,-0.08733802,9.620942,-0.067195125,-0.17776164,0.016646065,-89.64375,10.762501,43.95,watch_1
26228460773940,0.3397808,-0.0634098,9.802796,-0.067195125,-0.17776164,0.016646065,-89.64375,10.762501,43.95,watch_1
26228455811179,0.3397808,-0.0634098,9.802796,0.035430156,0.108123064,0.019089524,-90.3375,11.55,42.487503,watch_1
26228480307794,0.3397808,-0.0634098,9.802796,0.035430156,0.108123064,0.019089524,-90.3375,11.55,42.487503,watch_1
26228479846908,0.36370903,-0.039481573,9.884152,0.035430156,0.108123064,0.019089524,-90.3375,11.55,42.487503,watch_1
26228474884148,0.36370903,-0.039481573,9.884152,0.034208428,0.034819294,0.044745844,-91.03125,10.6125,42.35625,watch_1
26228490307742,0.36370903,-0.039481573,9.884152,0.034208428,0.034819294,0.044745844,-91.03125,10.6125,42.35625,watch_1
26228500307690,0.36370903,-0.039481573,9.884152,0.034208428,0.034819294,0.044745844,-86.90625,10.950001,45.412502,watch_1
26228493927169,0.30149564,-0.0634098,9.817153,0.0012217296,-0.01527162,0.06185006,-90.506256,9.975,42.61875,watch_1
26228510307638,0.30149564,-0.0634098,9.817153,0.0012217296,-0.01527162,0.06185006,-90.506256,9.975,42.61875,watch_1
26228498889929,0.30149564,-0.0634098,9.817153,0.0012217296,-0.01527162,0.06185006,-90.506256,9.975,42.61875,watch_1
26228520307585,0.30149564,-0.0634098,9.817153,0.0012217296,-0.01527162,0.06185006,-88.4625,9.1875,44.9625,watch_1
26228517963940,0.33020952,-0.049052864,9.87458,-0.020769402,-0.06536253,0.045967575,-88.6875,11.15625,44.756252,watch_1
26228513001179,0.33020952,-0.049052864,9.87458,-0.020769402,-0.06536253,0.045967575,-88.6875,11.15625,44.756252,watch_1
26228530307533,0.33020952,-0.049052864,9.87458,-0.020769402,-0.06536253,0.045967575,-88.6875,11.15625,44.756252,watch_1
26228540307481,0.33020952,-0.049052864,9.87458,-0.020769402,-0.06536253,0.045967575,-91.03125,10.6125,42.35625,watch_1
26228537036908,0.36370903,-0.0634098,9.788439,-0.050090913,-0.09834923,0.028863361,-91.03125,10.6125,42.35625,watch_1
26228532074148,0.36370903,-0.0634098,9.788439,-0.050090913,-0.09834923,0.028863361,-88.74375,9.618751,43.443752,watch_1
26228550307429,0.36370903,-0.0634098,9.788439,-0.050090913,-0.09834923,0.028863361,-88.74375,9.618751,43.443752,watch_1
26228560307377,0.36370903,-0.0634098,9.788439,-0.050090913,-0.09834923,0.028863361,-91.05,11.887501,42.075,watch_1
26228556110919,0.49292147,0.022731815,9.731011,-0.045203995,-0.089797124,0.0044287695,-91.05,11.887501,42.075,watch_1
26228551148158,0.49292147,0.022731815,9.731011,-0.045203995,-0.089797124,0.0044287695,-91.05,11.887501,42.075,watch_1
26228570307325,0.49292147,0.022731815,9.731011,-0.045203995,-0.089797124,0.0044287695,-89.08125,12.31875,40.818752,watch_1
26228580307273,0.49292147,0.022731815,9.731011,-0.045203995,-0.089797124,0.0044287695,-89.11875,13.44375,40.55625,watch_1
26228575183940,0.5312066,0.051445685,9.783653,-0.032986697,-0.11056653,0.011759147,-89.11875,13.44375,40.55625,watch_1
26228570221179,0.5312066,0.051445685,9.783653,-0.032986697,-0.11056653,0.011759147,-89.11875,13.44375,40.55625,watch_1
26228590307221,0.5312066,0.051445685,9.783653,-0.032986697,-0.11056653,0.011759147,-89.850006,12.243751,40.0125,watch_1
26228600307169,0.5312066,0.051445685,9.783653,-0.032986697,-0.11056653,0.011759147,-89.68125,12.075001,41.925003,watch_1
26228594257950,0.47377887,-0.13040884,9.7501545,-0.021991132,-0.051923506,0.03252855,-89.68125,12.075001,41.925003,watch_1
26228589295190,0.47377887,-0.13040884,9.7501545,-0.021991132,-0.051923506,0.03252855,-89.68125,12.075001,41.925003,watch_1
26228610307117,0.47377887,-0.13040884,9.7501545,-0.021991132,-0.051923506,0.03252855,-91.762505,12.375001,41.381252,watch_1
26228620307065,0.47377887,-0.13040884,9.7501545,-0.021991132,-0.051923506,0.03252855,-91.59375,12.562501,40.800003,watch_1
26228613330919,0.42592242,-0.30269206,9.807582,0.02565632,-0.0006108648,0.043524116,-91.59375,12.562501,40.800003,watch_1
26228608368158,0.42592242,-0.30269206,9.807582,0.02565632,-0.0006108648,0.043524116,-91.59375,12.562501,40.800003,watch_1
26228630307013,0.42592242,-0.30269206,9.807582,0.02565632,-0.0006108648,0.043524116,-92.193756,12.150001,43.0875,watch_1
26228640306960,0.28235307,-0.14476576,9.855438,0.05742129,0.020158539,0.041080657,-92.0625,12.337501,41.625,watch_1
26228632404929,0.28235307,-0.14476576,9.855438,0.05742129,0.020158539,0.041080657,-92.0625,12.337501,41.625,watch_1
26228627442169,0.28235307,-0.14476576,9.855438,0.05742129,0.020158539,0.041080657,-92.0625,12.337501,41.625,watch_1
26228650306908,0.28235307,-0.14476576,9.855438,0.05742129,0.020158539,0.041080657,-92.006256,10.087501,41.1375,watch_1
26228660306856,0.3684947,-0.16390835,9.898509,0.03054324,-0.07880156,0.031306818,-91.256256,12.8625,41.381252,watch_1
26228651477950,0.3684947,-0.16390835,9.898509,0.03054324,-0.07880156,0.031306818,-91.256256,12.8625,41.381252,watch_1
26228646515190,0.3684947,-0.16390835,9.898509,0.03054324,-0.07880156,0.031306818,-91.256256,12.8625,41.381252,watch_1
26228670306804,0.3684947,-0.16390835,9.898509,0.03054324,-0.07880156,0.031306818,-92.0625,12.01875,42.675003,watch_1
26228665558158,0.5072784,0.08973085,9.774082,-0.02443459,-0.14110976,0.027641632,-92.0625,12.01875,42.675003,watch_1
26228670520919,0.5072784,0.08973085,9.774082,-0.02443459,-0.14110976,0.027641632,-92.0625,12.01875,42.675003,watch_1
26228680306752,0.5072784,0.08973085,9.774082,-0.02443459,-0.14110976,0.027641632,-91.36875,10.293751,42.05625,watch_1
26228690306700,0.5072784,0.08973085,9.774082,-0.02443459,-0.14110976,0.027641632,-91.36875,10.293751,42.05625,watch_1
26228684631179,0.55034924,0.022731815,9.664013,-0.012217295,-0.108123064,0.010537418,-91.36875,10.293751,42.05625,watch_1
26228689593940,0.55034924,0.022731815,9.664013,-0.012217295,-0.108123064,0.010537418,-91.36875,10.293751,42.05625,watch_1
26228700306648,0.55034924,0.022731815,9.664013,-0.012217295,-0.108123064,0.010537418,-91.162506,12.31875,41.5875,watch_1
26228710306596,0.55034924,0.022731815,9.664013,-0.012217295,-0.108123064,0.010537418,-91.762505,10.96875,41.2125,watch_1
26228720306544,0.4546363,-0.13040884,9.769297,0.021991132,0.034819294,0.016646065,-92.981255,12.075001,41.7,watch_1
26228703705190,0.4546363,-0.13040884,9.769297,0.021991132,0.034819294,0.016646065,-92.981255,12.075001,41.7,watch_1
26228708667950,0.4546363,-0.13040884,9.769297,0.021991132,0.034819294,0.016646065,-91.762505,10.96875,41.2125,watch_1
26228730306492,0.4546363,-0.13040884,9.769297,0.021991132,0.034819294,0.016646065,-90.39375,13.81875,42.112503,watch_1
26228727740919,0.37328035,-0.14955142,9.8219385,0.021991132,0.034819294,0.016646065,-90.39375,13.81875,42.112503,watch_1
26228740306440,0.37328035,-0.14955142,9.8219385,0.02932151,0.032375835,0.03619374,-89.793755,12.4875,42.018753,watch_1
26228722778158,0.37328035,-0.14955142,9.8219385,0.02932151,0.032375835,0.03619374,-89.793755,12.4875,42.018753,watch_1
26228750306388,0.37328035,-0.14955142,9.8219385,0.02932151,0.032375835,0.03619374,-89.662506,12.356251,41.60625,watch_1
26228746814929,0.59342,-0.029910283,9.7501545,-0.0024434591,0.026267186,0.05574141,-89.662506,12.356251,41.60625,watch_1
26228741852169,0.59342,-0.029910283,9.7501545,-0.0024434591,0.026267186,0.05574141,-89.662506,12.356251,41.60625,watch_1
26228760306335,0.59342,-0.029910283,9.7501545,-0.0024434591,0.026267186,0.05574141,-90.075005,12.4125,43.0125,watch_1
26228770306283,0.59342,-0.029910283,9.7501545,-0.0024434591,0.026267186,0.05574141,-90.95625,11.6625,40.21875,watch_1
26228760925190,0.5407779,-0.049052864,9.7501545,-0.0061086477,0.037262753,0.03619374,-90.637505,12.937501,42.318752,watch_1
26228765887950,0.5407779,-0.049052864,9.7501545,-0.0061086477,0.037262753,0.03619374,-90.637505,12.937501,42.318752,watch_1
26228780306231,0.5407779,-0.049052864,9.7501545,-0.0061086477,0.037262753,0.03619374,-90.637505,12.937501,42.318752,watch_1
26228790306179,0.5407779,-0.049052864,9.7501545,-0.0061086477,0.037262753,0.03619374,-90.76875,13.06875,41.850002,watch_1
26228784961908,0.5168497,0.03708875,9.903295,-0.0061086477,0.037262753,0.03619374,-90.76875,13.06875,41.850002,watch_1
26228779999148,0.5168497,0.03708875,9.903295,0.034208428,0.027488915,-0.005345067,-90.76875,13.06875,41.850002,watch_1
26228800306127,0.5168497,0.03708875,9.903295,0.034208428,0.027488915,-0.005345067,-91.74375,12.375001,41.662502,watch_1
26228810306075,0.5168497,0.03708875,9.903295,0.034208428,0.027488915,-0.005345067,-89.86875,11.775001,41.79375,watch_1
26228804034929,0.4211368,-0.08733802,9.817153,0.05131264,-0.03604102,-0.0004581486,-89.86875,11.775001,41.79375,watch_1
26228799072169,0.4211368,-0.08733802,9.817153,0.05131264,-0.03604102,-0.0004581486,-89.86875,11.775001,41.79375,watch_1
26228820306023,0.4211368,-0.08733802,9.817153,0.05131264,-0.03604102,-0.0004581486,-91.05,10.63125,41.325,watch_1
26228830305971,0.4211368,-0.08733802,9.817153,0.05131264,-0.03604102,-0.0004581486,-90.15,13.293751,41.756252,watch_1
26228823108940,0.4881358,-0.1160519,9.72144,0.05131264,-0.03604102,-0.0004581486,-90.15,13.293751,41.756252,watch_1
26228818146179,0.4881358,-0.1160519,9.72144,-0.0024434591,-0.034819294,0.011759147,-90.15,13.293751,41.756252,watch_1
26228840305919,0.4881358,-0.1160519,9.72144,-0.0024434591,-0.034819294,0.011759147,-90.99375,12.468751,41.737503,watch_1
26228850305867,0.4881358,-0.1160519,9.72144,-0.0024434591,-0.034819294,0.011759147,-89.193756,12.4125,42.24375,watch_1
26228842151908,0.52163535,-0.029910283,9.735797,-0.0024434591,-0.034819294,0.011759147,-89.193756,12.4125,42.24375,watch_1
26228837189148,0.52163535,-0.029910283,9.735797,0.028099779,0.04214967,0.015424335,-89.193756,12.4125,42.24375,watch_1
26228860305815,0.52163535,-0.029910283,9.735797,0.028099779,0.04214967,0.015424335,-92.025,11.19375,41.8875,watch_1
26228870305763,0.52163535,-0.029910283,9.735797,0.028099779,0.04214967,0.015424335,-89.83125,12.20625,41.325,watch_1
26228861224929,0.4546363,-0.025124637,9.87458,0.015882485,0.08002329,0.025198173,-90.15,11.700001,43.068752,watch_1
26228880305710,0.4546363,-0.025124637,9.87458,0.015882485,0.08002329,0.025198173,-90.15,11.700001,43.068752,watch_1
26228856262169,0.4546363,-0.025124637,9.87458,0.015882485,0.08002329,0.025198173,-90.15,11.700001,43.068752,watch_1
26228880298940,0.36370903,-0.08255238,9.826724,0.0073303776,0.049480047,0.025198173,-90.15,11.700001,43.068752,watch_1
26228875336179,0.36370903,-0.08255238,9.826724,0.0073303776,0.049480047,0.025198173,-91.425,11.137501,42.112503,watch_1
26228890305658,0.36370903,-0.08255238,9.826724,0.0073303776,0.049480047,0.025198173,-91.425,11.137501,42.112503,watch_1
26228900305606,0.36370903,-0.08255238,9.826724,0.0073303776,0.049480047,0.025198173,-90.637505,11.6625,41.71875,watch_1
26228894409148,0.36370903,-0.08255238,9.826724,0.0012217296,0.026267186,0.009315688,-89.71875,10.51875,41.943752,watch_1
26228910305554,0.36370903,-0.08255238,9.826724,0.0012217296,0.026267186,0.009315688,-89.71875,10.51875,41.943752,watch_1
26228899371908,0.43070808,-0.029910283,9.802796,0.0012217296,0.026267186,0.009315688,-89.71875,10.51875,41.943752,watch_1
26228920305502,0.43070808,-0.029910283,9.802796,0.0012217296,0.026267186,0.009315688,-90.80625,11.512501,41.850002,watch_1
26228918445919,0.4354937,-0.0634098,9.836296,-0.0073303776,-0.011606431,0.0056504994,-90.80625,11.512501,41.850002,watch_1
26228930305450,0.4354937,-0.0634098,9.836296,-0.0073303776,-0.011606431,0.0056504994,-90.637505,11.3625,43.050003,watch_1
26228913483158,0.4354937,-0.0634098,9.836296,-0.0073303776,-0.011606431,0.0056504994,-90.637505,11.3625,43.050003,watch_1
26228940305398,0.4354937,-0.0634098,9.836296,-0.0073303776,-0.011606431,0.0056504994,-91.256256,12.8625,41.68125,watch_1
26228937518940,0.526421,0.01794617,9.769297,0.0036651888,-0.027488915,0.00076358096,-90.15,10.59375,42.318752,watch_1
26228950305346,0.526421,0.01794617,9.769297,0.0036651888,-0.027488915,0.00076358096,-90.15,10.59375,42.318752,watch_1
26228932556179,0.526421,0.01794617,9.769297,0.0036651888,-0.027488915,0.00076358096,-90.15,10.59375,42.318752,watch_1
26228960305294,0.526421,0.01794617,9.769297,0.0036651888,-0.027488915,0.00076358096,-90.375,11.2875,41.643753,watch_1
26228951630190,0.46899325,-0.0011964113,9.72144,0.012217295,0.01282816,-0.0016798781,-90.375,11.2875,41.643753,watch_1
26228956592950,0.46899325,-0.0011964113,9.72144,0.012217295,0.01282816,-0.0016798781,-90.375,11.2875,41.643753,watch_1
26228970305242,0.46899325,-0.0011964113,9.72144,0.012217295,0.01282816,-0.0016798781,-90.975006,11.043751,42.75,watch_1
26228980305190,0.46899325,-0.0011964113,9.72144,0.012217295,0.01282816,-0.0016798781,-92.86875,10.387501,41.5875,watch_1
26228975665919,0.42592242,-0.039481573,9.8219385,0.015882485,0.033597562,-0.0016798781,-92.86875,10.387501,41.5875,watch_1
26228970703158,0.42592242,-0.039481573,9.8219385,0.015882485,0.033597562,-0.0016798781,-92.86875,10.387501,41.5875,watch_1
26228990305138,0.42592242,-0.039481573,9.8219385,0.015882485,0.033597562,-0.0016798781,-90.543755,12.375001,42.24375,watch_1
26229000305085,0.42592242,-0.039481573,9.8219385,0.015882485,0.033597562,-0.0016798781,-89.64375,12.675,40.575,watch_1
26228989777169,0.42592242,-0.06819545,9.759726,0.0036651888,0.060475614,-0.0004581486,-89.64375,12.675,40.575,watch_1
26228994739929,0.42592242,-0.06819545,9.759726,0.0036651888,0.060475614,-0.0004581486,-89.64375,12.675,40.575,watch_1
26229010305033,0.42592242,-0.06819545,9.759726,0.0036651888,0.060475614,-0.0004581486,-92.0625,11.25,39.84375,watch_1
26229020304981,0.42592242,-0.06819545,9.759726,0.0036651888,0.060475614,-0.0004581486,-90.975006,11.6625,39.9375,watch_1
26229013782950,0.4019942,-0.020338992,9.826724,0.0036651888,0.060475614,-0.0004581486,-90.975006,11.6625,39.9375,watch_1
26229008820190,0.4019942,-0.020338992,9.826724,0.015882485,0.083688475,0.0044287695,-90.975006,11.6625,39.9375,watch_1
26229030304929,0.4019942,-0.020338992,9.826724,0.015882485,0.083688475,0.0044287695,-90.46875,10.575001,40.96875,watch_1
26229040304877,0.4019942,-0.020338992,9.826724,0.015882485,0.083688475,0.0044287695,-89.71875,12.093751,40.612503,watch_1
26229027893158,0.41635114,-0.04426722,9.850653,0.021991132,0.059253883,0.006872229,-89.71875,12.093751,40.612503,watch_1
26229032855919,0.41635114,-0.04426722,9.850653,0.021991132,0.059253883,0.006872229,-89.71875,12.093751,40.612503,watch_1
26229050304825,0.41635114,-0.04426722,9.850653,0.021991132,0.059253883,0.006872229,-90.95625,11.325001,42.300003,watch_1
26229060304773,0.41635114,-0.04426722,9.850653,0.021991132,0.059253883,0.006872229,-90.037506,13.181251,41.193752,watch_1
26229046967169,0.34456646,-0.07776674,9.802796,0.021991132,0.022601997,0.0056504994,-90.037506,13.181251,41.193752,watch_1
26229051929929,0.34456646,-0.07776674,9.802796,0.021991132,0.022601997,0.0056504994,-90.037506,13.181251,41.193752,watch_1
26229070304721,0.34456646,-0.07776674,9.802796,0.021991132,0.022601997,0.0056504994,-91.8375,11.83125,40.40625,watch_1
26229071002950,0.3589234,-0.039481573,9.817153,0.0012217296,-0.0018325944,0.0019853106,-90.7125,12.20625,42.375,watch_1
26229066040190,0.3589234,-0.039481573,9.817153,0.0012217296,-0.0018325944,0.0019853106,-90.7125,12.20625,42.375,watch_1
26229080304669,0.34456646,-0.07776674,9.802796,0.021991132,0.022601997,0.0056504994,-90.7125,12.20625,42.375,watch_1
26229090304617,0.3589234,-0.039481573,9.817153,0.0012217296,-0.0018325944,0.0019853106,-89.15625,11.26875,43.237503,watch_1
26229090076908,0.43070808,-0.020338992,9.778868,-0.0036651888,-0.0067195124,-0.0004581486,-89.15625,11.26875,43.237503,watch_1
26229085114148,0.43070808,-0.020338992,9.778868,-0.0036651888,-0.0067195124,-0.0004581486,-89.15625,11.26875,43.237503,watch_1
26229100304565,0.43070808,-0.020338992,9.778868,-0.0036651888,-0.0067195124,-0.0004581486,-90.881256,12.056251,42.225002,watch_1
26229110304513,0.43070808,-0.020338992,9.778868,-0.0036651888,-0.0067195124,-0.0004581486,-89.7375,11.325001,43.3125,watch_1
26229109149929,0.3924229,0.0035892338,9.793225,0.0024434591,0.0042760535,0.00076358096,-89.7375,11.325001,43.3125,watch_1
26229104187169,0.3924229,0.0035892338,9.793225,0.0024434591,0.0042760535,0.00076358096,-89.7375,11.325001,43.3125,watch_1
26229120304460,0.3924229,0.0035892338,9.793225,0.0024434591,0.0042760535,0.00076358096,-89.887505,11.118751,45.206253,watch_1
26229130304408,0.3924229,0.0035892338,9.793225,0.0024434591,0.0042760535,0.00076358096,-89.025,11.15625,42.675003,watch_1
26229123261179,0.41156548,-0.020338992,9.75494,0.0036651888,0.021380268,0.0044287695,-89.025,11.15625,42.675003,watch_1
26229128223940,0.41156548,-0.020338992,9.75494,0.0036651888,0.021380268,0.0044287695,-89.025,11.15625,42.675003,watch_1
26229140304356,0.41156548,-0.020338992,9.75494,0.0036651888,0.021380268,0.0044287695,-88.125,9.525001,44.4,watch_1
26229150304304,0.41156548,-0.020338992,9.75494,0.0036651888,0.021380268,0.0044287695,-88.14375,9.5625,43.36875,watch_1
26229147296908,0.3684947,-0.025124637,9.845867,0.03176497,0.037262753,0.00320704,-88.14375,9.5625,43.36875,watch_1
26229142334148,0.3684947,-0.025124637,9.845867,0.03176497,0.037262753,0.00320704,-88.14375,9.5625,43.36875,watch_1
26229160304252,0.3684947,-0.025124637,9.845867,0.03176497,0.037262753,0.00320704,-91.70625,11.55,41.175003,watch_1
26229170304200,0.3684947,-0.025124637,9.845867,0.03176497,0.037262753,0.00320704,-91.0875,10.35,41.0625,watch_1
26229166370919,0.38285163,-0.034695927,9.83151,0.03176497,0.037262753,0.00320704,-91.0875,10.35,41.0625,watch_1
26229161408158,0.38285163,-0.034695927,9.83151,0.0048869182,0.0042760535,0.0019853106,-91.0875,10.35,41.0625,watch_1
26229180304148,0.38285163,-0.034695927,9.83151,0.0048869182,0.0042760535,0.0019853106,-89.11875,11.85,42.16875,watch_1
26229190304096,0.38285163,-0.034695927,9.83151,0.0048869182,0.0042760535,0.0019853106,-89.83125,12.187501,42.05625,watch_1
26229185413940,0.3924229,-0.0011964113,9.817153,-0.017104214,-0.022601997,0.0044287695,-91.350006,12.187501,39.975002,watch_1
26229180451179,0.3924229,-0.0011964113,9.817153,-0.017104214,-0.022601997,0.0044287695,-91.350006,12.187501,39.975002,watch_1
26229200304044,0.3924229,-0.0011964113,9.817153,-0.017104214,-0.022601997,0.0044287695,-91.350006,12.187501,39.975002,watch_1
26229210303992,0.3924229,-0.0011964113,9.817153,-0.017104214,-0.022601997,0.0044287695,-92.0625,11.231251,40.143753,watch_1
26229204486908,0.46899325,0.032303106,9.817153,-0.017104214,-0.022601997,0.0044287695,-92.0625,11.231251,40.143753,watch_1
26229199524148,0.46899325,0.032303106,9.817153,-0.028099779,-0.028710645,0.00076358096,-92.0625,11.231251,40.143753,watch_1
26229220303940,0.46899325,0.032303106,9.817153,-0.028099779,-0.028710645,0.00076358096,-91.5,10.89375,39.506252,watch_1
26229230303888,0.46899325,0.032303106,9.817153,-0.028099779,-0.028710645,0.00076358096,-93.28125,10.931251,40.612503,watch_1
26229223560919,0.36370903,-0.034695927,9.802796,-0.028099779,-0.028710645,0.00076358096,-93.28125,10.931251,40.612503,watch_1
26229218598158,0.36370903,-0.034695927,9.802796,0.0036651888,-0.021380268,-0.0004581486,-93.28125,10.931251,40.612503,watch_1
26229240303835,0.36370903,-0.034695927,9.802796,0.0036651888,-0.021380268,-0.0004581486,-90.20625,11.75625,40.3125,watch_1
26229250303783,0.36370903,-0.034695927,9.802796,0.0036651888,-0.021380268,-0.0004581486,-90.1875,11.7375,41.756252,watch_1
26229242633940,0.39720857,-0.029910283,9.769297,0.0036651888,-0.021380268,-0.0004581486,-90.1875,11.7375,41.756252,watch_1
26229237671179,0.39720857,-0.029910283,9.769297,-0.0061086477,-0.023823727,0.0019853106,-90.1875,11.7375,41.756252,watch_1
26229260303731,0.39720857,-0.029910283,9.769297,-0.0061086477,-0.023823727,0.0019853106,-89.9625,12.637501,40.10625,watch_1
26229270303679,0.39720857,-0.029910283,9.769297,-0.0061086477,-0.023823727,0.0019853106,-89.55,12.262501,40.7625,watch_1
26229261706908,0.32063824,-0.0634098,9.83151,0.0073303776,-0.011606431,0.00076358096,-89.55,12.262501,40.7625,watch_1
26229256744148,0.32063824,-0.0634098,9.83151,0.0073303776,-0.011606431,0.00076358096,-89.55,12.262501,40.7625,watch_1
26229280303627,0.32063824,-0.0634098,9.83151,0.0073303776,-0.011606431,0.00076358096,-90.24375,11.15625,41.8125,watch_1
26229290303575,0.32063824,-0.0634098,9.83151,0.0073303776,-0.011606431,0.00076358096,-91.2375,10.1625,42.225002,watch_1
26229280780919,0.4354937,-0.058624156,9.702297,0.0073303776,-0.011606431,0.00076358096,-91.2375,10.1625,42.225002,watch_1
26229275818158,0.4354937,-0.058624156,9.702297,-0.013439025,-0.0030543238,0.0056504994,-91.2375,10.1625,42.225002,watch_1
26229300303523,0.4354937,-0.058624156,9.702297,-0.013439025,-0.0030543238,0.0056504994,-89.8125,13.6125,42.05625,watch_1
26229299853940,0.4977071,0.01794617,9.860224,-0.013439025,-0.0030543238,0.0056504994,-89.8125,13.6125,42.05625,watch_1
26229294891179,0.4977071,0.01794617,9.860224,0.0024434591,0.025045456,0.0019853106,-89.568756,12.281251,39.300003,watch_1
26229310303471,0.4977071,0.01794617,9.860224,0.0024434591,0.025045456,0.0019853106,-89.568756,12.281251,39.300003,watch_1
26229320303419,0.4977071,0.01794617,9.860224,0.0024434591,0.025045456,0.0019853106,-89.568756,12.281251,39.300003,watch_1
26229318927950,0.38285163,0.03708875,9.841082,0.012217295,0.054366965,-0.0016798781,-89.568756,12.281251,39.300003,watch_1
26229313965190,0.38285163,0.03708875,9.841082,0.012217295,0.054366965,-0.0016798781,-89.568756,12.281251,39.300003,watch_1
26229330303367,0.38285163,0.03708875,9.841082,0.012217295,0.054366965,-0.0016798781,-90.525,12.69375,41.193752,watch_1
26229340303315,0.38285163,0.03708875,9.841082,0.012217295,0.054366965,-0.0016798781,-89.34375,11.137501,41.775,watch_1
26229338000919,0.38763726,-0.096909314,9.778868,-0.0024434591,0.037262753,0.00076358096,-89.34375,11.137501,41.775,watch_1
26229333038158,0.38763726,-0.096909314,9.778868,-0.0024434591,0.037262753,0.00076358096,-89.34375,11.137501,41.775,watch_1
26229350303263,0.38763726,-0.096909314,9.778868,-0.0024434591,0.037262753,0.00076358096,-91.293755,11.00625,42.28125,watch_1
26229360303210,0.38763726,-0.096909314,9.778868,-0.0024434591,0.037262753,0.00076358096,-91.012505,11.400001,39.225002,watch_1
26229357043940,0.33499518,-0.106480606,9.970294,-0.0024434591,0.037262753,0.00076358096,-91.012505,11.400001,39.225002,watch_1
26229370303158,0.33499518,-0.106480606,9.970294,-0.008552107,0.033597562,0.0056504994,-88.950005,10.6125,42.018753,watch_1
26229352081179,0.33499518,-0.106480606,9.970294,-0.008552107,0.033597562,0.0056504994,-88.950005,10.6125,42.018753,watch_1
26229380303106,0.33499518,-0.106480606,9.970294,-0.008552107,0.033597562,0.0056504994,-91.275,9.900001,41.662502,watch_1
26229376117950,0.2440679,-0.18783657,10.17129,-0.008552107,0.033597562,0.0056504994,-91.275,9.900001,41.662502,watch_1
26229371155190,0.2440679,-0.18783657,10.17129,-0.043982264,-0.06780599,-0.017562363,-91.275,9.900001,41.662502,watch_1
26229390303054,0.2440679,-0.18783657,10.17129,-0.043982264,-0.06780599,-0.017562363,-89.043755,9.900001,41.643753,watch_1
26229400303002,0.2440679,-0.18783657,10.17129,-0.043982264,-0.06780599,-0.017562363,-89.86875,12.243751,39.7125,watch_1
26229395190919,0.28235307,-0.21655045,10.23829,-0.043982264,-0.06780599,-0.017562363,-89.86875,12.243751,39.7125,watch_1
26229390228158,0.28235307,-0.21655045,10.23829,-0.10995566,-0.23273948,-0.07009673,-89.86875,12.243751,39.7125,watch_1
26229410302950,0.28235307,-0.21655045,10.23829,-0.10995566,-0.23273948,-0.07009673,-89.5875,11.512501,42.43125,watch_1
26229420302898,0.28235307,-0.21655045,10.23829,-0.10995566,-0.23273948,-0.07009673,-89.5875,11.512501,42.43125,watch_1
26229409302169,0.28235307,-0.21655045,10.23829,-0.07819069,-0.34758207,-0.10308343,-89.5875,11.512501,42.43125,watch_1
26229414264929,0.4211368,0.02751746,10.233504,-0.07819069,-0.34758207,-0.10308343,-89.5875,11.512501,42.43125,watch_1
26229430302846,0.4211368,0.02751746,10.233504,-0.07819069,-0.34758207,-0.10308343,-90.80625,11.512501,41.850002,watch_1
26229440302794,0.4211368,0.02751746,10.233504,-0.07819069,-0.34758207,-0.10308343,-92.30625,12.712501,42.15,watch_1
26229433337950,0.7848458,0.22851457,10.3340025,-0.07819069,-0.34758207,-0.10308343,-92.30625,12.712501,42.15,watch_1
26229428375190,0.7848458,0.22851457,10.3340025,-0.018325943,-0.38789913,-0.09697478,-92.30625,12.712501,42.15,watch_1
26229450302742,0.7848458,0.22851457,10.3340025,-0.018325943,-0.38789913,-0.09697478,-91.03125,10.59375,43.0875,watch_1
26229460302690,0.7848458,0.22851457,10.3340025,-0.018325943,-0.38789913,-0.09697478,-91.012505,12.168751,42.787502,watch_1
26229447449148,1.2251252,0.5300102,11.003993,0.02687805,-0.45998117,-0.06398808,-91.012505,12.168751,42.787502,watch_1
26229452411908,1.2251252,0.5300102,11.003993,0.02687805,-0.45998117,-0.06398808,-91.012505,12.168751,42.787502,watch_1
26229470302638,1.2251252,0.5300102,11.003993,0.02687805,-0.45998117,-0.06398808,-91.875,11.0625,42.787502,watch_1
26229480302585,1.2251252,0.5300102,11.003993,0.02687805,-0.45998117,-0.06398808,-92.2125,11.85,43.8375,watch_1
26229471484929,0.82313097,0.23808585,11.860623,0.02687805,-0.45998117,-0.06398808,-92.2125,11.85,43.8375,watch_1
26229466522169,0.82313097,0.23808585,11.860623,0.18081598,-0.5442805,0.008093959,-92.2125,11.85,43.8375,watch_1
26229490302533,0.82313097,0.23808585,11.860623,0.18081598,-0.5442805,0.008093959,-94.18125,8.71875,45.375,watch_1
26229485596179,0.82313097,0.23808585,11.860623,0.51556987,-0.31948227,-0.039553493,-92.86875,10.06875,43.65,watch_1
26229500302481,0.82313097,0.23808585,11.860623,0.51556987,-0.31948227,-0.039553493,-92.86875,10.06875,43.65,watch_1
26229490558940,0.7752745,-0.22612174,11.90848,0.51556987,-0.31948227,-0.039553493,-92.86875,10.06875,43.65,watch_1
26229510302429,0.7752745,-0.22612174,11.90848,0.51556987,-0.31948227,-0.039553493,-93.5625,8.94375,45.581253,watch_1
26229509631908,0.95712906,-0.62811595,10.659427,0.6181952,-0.059253883,-0.1556178,-93.356255,9.075001,46.893753,watch_1
26229520302377,0.95712906,-0.62811595,10.659427,0.6181952,-0.059253883,-0.1556178,-93.356255,9.075001,46.893753,watch_1
26229504669148,0.7752745,-0.22612174,11.90848,0.6181952,-0.059253883,-0.1556178,-93.356255,9.075001,46.893753,watch_1
26229530302325,0.95712906,-0.62811595,10.659427,0.6181952,-0.059253883,-0.1556178,-94.200005,6.8437505,47.15625,watch_1
26229523712169,1.0097711,-0.18783657,9.8219385,0.5253437,0.045814857,-0.2753473,-94.200005,6.8437505,47.15625,watch_1
26229528674929,1.0097711,-0.18783657,9.8219385,0.5253437,0.045814857,-0.2753473,-94.200005,6.8437505,47.15625,watch_1
26229540302273,1.0097711,-0.18783657,9.8219385,0.5253437,0.045814857,-0.2753473,-93.61875,6.3,49.74375,watch_1
26229550302221,1.0097711,-0.18783657,9.8219385,0.5253437,0.045814857,-0.2753473,-93.037506,8.775001,49.85625,watch_1
26229542786179,0.94277215,0.44865423,9.592228,0.5387827,-0.06536253,-0.25335616,-93.037506,8.775001,49.85625,watch_1
26229547748940,0.94277215,0.44865423,9.592228,0.5387827,-0.06536253,-0.25335616,-93.037506,8.775001,49.85625,watch_1
26229560302169,0.94277215,0.44865423,9.592228,0.5387827,-0.06536253,-0.25335616,-92.700005,6.2250004,51.750004,watch_1
26229570302117,0.94277215,0.44865423,9.592228,0.5387827,-0.06536253,-0.25335616,-93.20625,5.925,49.687504,watch_1
26229566821908,0.971486,0.6687939,8.783454,0.4422661,0.24740024,-0.30222535,-93.20625,5.925,49.687504,watch_1
26229561859148,0.971486,0.6687939,8.783454,0.4422661,0.24740024,-0.30222535,-93.20625,5.925,49.687504,watch_1
26229580302065,0.971486,0.6687939,8.783454,0.4422661,0.24740024,-0.30222535,-92.15625,6.8437505,52.631252,watch_1
26229590302013,0.971486,0.6687939,8.783454,0.4422661,0.24740024,-0.30222535,-91.6125,6.3375,53.456253,watch_1
26229585895919,0.45942193,0.66400826,7.7162547,0.4422661,0.24740024,-0.30222535,-91.6125,6.3375,53.456253,watch_1
26229580933158,0.45942193,0.66400826,7.7162547,0.45570514,0.26083925,-0.23625195,-92.568756,6.9,54.018753,watch_1
26229600301960,0.45942193,0.66400826,7.7162547,0.45570514,0.26083925,-0.23625195,-92.568756,6.9,54.018753,watch_1
26229610301908,0.45942193,0.66400826,7.7162547,0.45570514,0.26083925,-0.23625195,-92.568756,6.9,54.018753,watch_1
26229604968940,0.0526421,-0.12083755,3.9738803,0.45570514,0.26083925,-0.23625195,-92.568756,6.9,54.018753,watch_1
26229643115919,-0.0047856453,-0.08733802,3.4283166,0.45570514,0.26083925,-0.23625195,-92.568756,6.9,54.018753,watch_1
26229662189929,-0.0047856453,-0.08733802,3.4283166,0.45570514,0.26083925,-0.23625195,-92.568756,6.9,54.018753,watch_1
26229624042950,0.0526421,-0.12083755,3.9738803,0.45570514,0.26083925,-0.23625195,-92.568756,6.9,54.018753,watch_1
26229681262950,-0.71306115,-0.25962126,3.4761732,0.45570514,0.26083925,-0.23625195,-92.568756,6.9,54.018753,watch_1
26229700305919,1.6175481,1.3914263,31.816765,0.45570514,0.26083925,-0.23625195,-92.568756,6.9,54.018753,watch_1
26229719379929,1.6175481,1.3914263,31.816765,0.3420843,0.36224282,-0.18616104,-92.568756,6.9,54.018753,watch_1
26229600006179,1.6175481,1.3914263,31.816765,0.3420843,0.36224282,-0.18616104,-92.568756,6.9,54.018753,watch_1
26229619080190,1.6175481,1.3914263,31.816765,-0.6194169,0.73120517,-0.17394374,-92.568756,6.9,54.018753,watch_1
26229638153158,1.6175481,1.3914263,31.816765,-0.6194169,0.73120517,-0.17394374,-92.568756,6.9,54.018753,watch_1
26229657227169,1.6175481,1.3914263,31.816765,-1.0763438,0.49174616,-0.017562363,-92.568756,6.9,54.018753,watch_1
26229676300190,1.6175481,1.3914263,31.816765,-1.7458515,-0.2547306,0.12293654,-92.568756,6.9,54.018753,watch_1
26229695343158,1.6175481,1.3914263,31.816765,-2.1001532,-1.1783582,0.23167047,-92.568756,6.9,54.018753,watch_1
26229714417169,1.6175481,1.3914263,31.816765,-0.11117739,0.33536476,0.2707658,-92.568756,6.9,54.018753,watch_1
26229620301856,1.6175481,1.3914263,31.816765,-0.11117739,0.33536476,0.2707658,-92.30625,5.3812504,53.625004,watch_1
26229630301804,1.6175481,1.3914263,31.816765,-0.11117739,0.33536476,0.2707658,-93.7125,4.6125,54.54375,watch_1
26229640301752,1.6175481,1.3914263,31.816765,-0.11117739,0.33536476,0.2707658,-90.168755,5.64375,54.562504,watch_1
26229650301700,1.6175481,1.3914263,31.816765,-0.11117739,0.33536476,0.2707658,-88.950005,5.64375,55.29375,watch_1
26229660301648,1.6175481,1.3914263,31.816765,-0.11117739,0.33536476,0.2707658,-87.675,1.6125001,59.60625,watch_1
26229670301596,1.6175481,1.3914263,31.816765,-0.11117739,0.33536476,0.2707658,-89.625,-1.1812501,59.812504,watch_1
26229680301544,1.6175481,1.3914263,31.816765,-0.11117739,0.33536476,0.2707658,-89.775,2.8125,52.48125,watch_1
26229690301492,1.6175481,1.3914263,31.816765,-0.11117739,0.33536476,0.2707658,-91.70625,2.8125,52.48125,watch_1
26229700301440,1.6175481,1.3914263,31.816765,-0.11117739,0.33536476,0.2707658,-88.293755,6.6375003,53.081253,watch_1
26229710301388,1.6175481,1.3914263,31.816765,-0.11117739,0.33536476,0.2707658,-87.58125,4.875,53.49375,watch_1
26229720301335,1.6175481,1.3914263,31.816765,-0.11117739,0.33536476,0.2707658,-89.64375,7.2562504,48.80625,watch_1
26229730301283,1.6175481,1.3914263,31.816765,-0.11117739,0.33536476,0.2707658,-88.125,10.950001,44.4,watch_1
26229740301231,1.6175481,1.3914263,31.816765,-0.11117739,0.33536476,0.2707658,-90.24375,9.243751,44.756252,watch_1
26229733490190,1.6175481,1.3914263,31.816765,0.70860314,-0.09957096,0.07284562,-90.24375,9.243751,44.756252,watch_1
26229750301179,0.43070808,-4.9878387,7.701898,0.70860314,-0.09957096,0.07284562,-90.3375,9.65625,45.28125,watch_1
26229738452950,0.43070808,-4.9878387,7.701898,0.70860314,-0.09957096,0.07284562,-90.3375,9.65625,45.28125,watch_1
26229760301127,0.43070808,-4.9878387,7.701898,0.70860314,-0.09957096,0.07284562,-87.7125,8.6625,48.018753,watch_1
26229757526908,0.9092726,-1.5373886,9.740582,0.06352994,0.102014415,0.1754709,-87.7125,8.6625,48.018753,watch_1
26229752564148,0.9092726,-1.5373886,9.740582,0.06352994,0.102014415,0.1754709,-91.012505,7.2375,48.075,watch_1
26229770301075,0.9092726,-1.5373886,9.740582,0.06352994,0.102014415,0.1754709,-91.012505,7.2375,48.075,watch_1
26229780301023,0.9092726,-1.5373886,9.740582,0.06352994,0.102014415,0.1754709,-89.700005,6.8437505,48.393753,watch_1
26229771637169,1.0863415,-0.106480606,11.224133,-0.16126831,-0.32314748,0.21823144,-89.700005,6.8437505,48.393753,watch_1
26229776599929,1.0863415,-0.106480606,11.224133,0.06352994,0.102014415,0.1754709,-89.700005,6.8437505,48.393753,watch_1
26229790300971,1.0863415,-0.106480606,11.224133,-0.16126831,-0.32314748,0.21823144,-87.675,9.431251,45.61875,watch_1
26229800300919,1.0863415,-0.106480606,11.224133,-0.16126831,-0.32314748,0.21823144,-91.068756,8.418751,45.46875,watch_1
26229795673940,0.95712906,1.0947163,9.999007,-0.16126831,-0.32314748,0.21823144,-91.068756,8.418751,45.46875,watch_1
26229790711179,0.95712906,1.0947163,9.999007,-0.24068072,-0.3536907,0.06429352,-91.068756,8.418751,45.46875,watch_1
26229810300867,0.95712906,1.0947163,9.999007,-0.24068072,-0.3536907,0.06429352,-90.76875,6.6937504,48.300003,watch_1
26229820300815,0.95712906,1.0947163,9.999007,-0.24068072,-0.3536907,0.06429352,-91.89375,8.3625,49.593754,watch_1
26229814746908,1.5218352,1.7982062,12.200404,-0.24068072,-0.3536907,0.06429352,-91.89375,8.3625,49.593754,watch_1
26229809784148,1.5218352,1.7982062,12.200404,-0.20402883,-0.27672175,0.0044287695,-91.89375,8.3625,49.593754,watch_1
26229830300763,1.5218352,1.7982062,12.200404,-0.20402883,-0.27672175,0.0044287695,-90.1875,9.168751,48.843754,watch_1
26229840300710,1.5218352,1.7982062,12.200404,-0.20402883,-0.27672175,0.0044287695,-89.0625,8.475,48.600002,watch_1
26229833820919,1.3160524,0.721436,12.975679,0.2516763,-0.30604327,0.03375028,-89.0625,8.475,48.600002,watch_1
26229828858158,1.3160524,0.721436,12.975679,0.2516763,-0.30604327,0.03375028,-89.0625,8.475,48.600002,watch_1
26229850300658,1.3160524,0.721436,12.975679,0.2516763,-0.30604327,0.03375028,-93.84375,5.86875,48.318752,watch_1
26229860300606,1.3160524,0.721436,12.975679,0.2516763,-0.30604327,0.03375028,-91.762505,6.9750004,49.162502,watch_1
26229852893940,-0.7369894,-1.288535,11.147562,0.8161153,0.0030543238,0.18524474,-91.762505,6.9750004,49.162502,watch_1
26229847931179,-0.7369894,-1.288535,11.147562,0.8161153,0.0030543238,0.18524474,-91.762505,6.9750004,49.162502,watch_1
26229870300554,-0.7369894,-1.288535,11.147562,0.8161153,0.0030543238,0.18524474,-91.6125,7.1625004,47.71875,watch_1
26229880300502,-0.7369894,-1.288535,11.147562,0.8161153,0.0030543238,0.18524474,-94.725006,5.8875003,48.937504,watch_1
26229871936908,0.3493521,-1.9824536,9.266804,0.7977894,0.27183482,0.031306818,-94.725006,5.8875003,48.937504,watch_1
26229866974148,0.3493521,-1.9824536,9.266804,0.7977894,0.27183482,0.031306818,-94.725006,5.8875003,48.937504,watch_1
26229890300450,0.3493521,-1.9824536,9.266804,0.7977894,0.27183482,0.031306818,-91.8375,6.2625003,48.937504,watch_1
26229891009929,0.3589234,-1.2358929,9.190233,0.7977894,0.27183482,0.031306818,-94.40625,4.4812503,50.268753,watch_1
26229900300398,0.3589234,-1.2358929,9.190233,0.7977894,0.27183482,0.031306818,-94.40625,4.4812503,50.268753,watch_1
26229910300346,0.3589234,-1.2358929,9.190233,0.5070178,0.16432263,0.00320704,-91.9875,4.4812503,51.412502,watch_1
26229886047169,0.3589234,-1.2358929,9.190233,0.5070178,0.16432263,0.00320704,-91.9875,4.4812503,51.412502,watch_1
26229905121179,0.3397808,-0.17826529,9.759726,0.21746786,0.30726498,-0.159283,-90.80625,3.8437502,55.256252,watch_1
26229920300294,0.3397808,-0.17826529,9.759726,0.21746786,0.30726498,-0.159283,-90.80625,3.8437502,55.256252,watch_1
26229910083940,0.3397808,-0.17826529,9.759726,0.21746786,0.30726498,-0.159283,-90.80625,3.8437502,55.256252,watch_1
26229930300242,0.3397808,-0.17826529,9.759726,0.21746786,0.30726498,-0.159283,-92.4,2.9437501,55.162502,watch_1
26229929156908,0.67477596,0.41515473,9.922438,0.21746786,0.30726498,-0.159283,-92.4,2.9437501,55.162502,watch_1
26229924194148,0.67477596,0.41515473,9.922438,0.22846343,0.46608981,-0.21914774,-89.006256,5.0625,55.631252,watch_1
26229940300190,0.67477596,0.41515473,9.922438,0.22846343,0.46608981,-0.21914774,-89.006256,5.0625,55.631252,watch_1
26229950300138,0.67477596,0.41515473,9.922438,0.22846343,0.46608981,-0.21914774,-90.7125,1.3875,58.125004,watch_1
26229948230919,0.44506502,0.32422748,8.922237,0.524122,0.5882628,-0.18371758,-90.7125,1.3875,58.125004,watch_1
26229943268158,0.44506502,0.32422748,8.922237,0.524122,0.5882628,-0.18371758,-90.7125,1.3875,58.125004,watch_1
26229960300085,0.44506502,0.32422748,8.922237,0.524122,0.5882628,-0.18371758,-89.775,1.63125,59.662502,watch_1
26229970300033,0.44506502,0.32422748,8.922237,0.524122,0.5882628,-0.18371758,-89.887505,2.2125,57.843754,watch_1
26229967303940,0.15792629,-0.096909314,7.094121,0.524122,0.5882628,-0.18371758,-89.887505,2.2125,57.843754,watch_1
