# Session ID: 20250816_124609
# Start Time: 1755341169409
# Device ID: watch_2
# Sample Count: 2875
# Generated by Watch IMU Recorder
timestamp,accel_x,accel_y,accel_z,gyro_x,gyro_y,gyro_z,mag_x,mag_y,mag_z,watch_name
26234787274264,0.10767702,-0.23868406,9.75135,-0.0029016077,-0.00641408,-0.0010690134,-630.78754,-239.45625,-603.91876,watch_2
26234806897232,0.11246266,-0.20997019,9.794421,-0.0029016077,-0.00641408,-0.0010690134,-630.78754,-239.45625,-603.91876,watch_2
26234826550253,0.12203395,-0.20997019,9.75135,-0.0029016077,-0.00641408,-0.0010690134,-630.78754,-239.45625,-603.91876,watch_2
26234846173222,0.1268196,-0.20518455,9.789636,-0.0029016077,-0.00641408,-0.0010690134,-630.78754,-239.45625,-603.91876,watch_2
26234865294576,0.1268196,-0.20518455,9.789636,-0.0029016077,-0.00641408,-0.0010690134,-633.28125,-238.25626,-609.2625,watch_2
26234865826243,0.12203395,-0.2434697,9.741779,-0.0029016077,-0.00641408,-0.0010690134,-633.86255,-236.94376,-608.4375,watch_2
26234860711139,0.12203395,-0.2434697,9.741779,-0.0029016077,0.0033597562,0.0001527162,-631.3688,-237.33751,-607.6875,watch_2
26234885294472,0.12203395,-0.2434697,9.741779,-0.0029016077,0.0033597562,0.0001527162,-631.3688,-237.33751,-607.6875,watch_2
26234875294524,0.12203395,-0.2434697,9.741779,-0.0029016077,0.0033597562,0.0001527162,-631.3688,-237.33751,-607.6875,watch_2
26234895294420,0.12203395,-0.2434697,9.741779,-0.0029016077,0.0033597562,0.0001527162,-632.23126,-237.33751,-606.6188,watch_2
26234885449264,0.09810573,-0.22911277,9.775279,0.00076358096,0.0033597562,0.0001527162,-632.23126,-237.33751,-606.6188,watch_2
26234880334159,0.09810573,-0.22911277,9.775279,0.00076358096,0.0033597562,0.0001527162,-632.23126,-237.33751,-606.6188,watch_2
26234905294368,0.09810573,-0.22911277,9.775279,0.00076358096,0.0033597562,0.0001527162,-633.30005,-237.46877,-606.73126,watch_2
26234915294316,0.10767702,-0.22911277,9.741779,0.00076358096,0.0033597562,0.0001527162,-632.66254,-238.36876,-606.86255,watch_2
26234905072232,0.10767702,-0.22911277,9.741779,0.00076358096,0.0033597562,0.0001527162,-632.66254,-238.36876,-606.86255,watch_2
26234899957128,0.10767702,-0.22911277,9.741779,-0.0004581486,0.0033597562,0.0001527162,-632.66254,-238.36876,-606.86255,watch_2
26234925294264,0.10767702,-0.22911277,9.741779,-0.0004581486,0.0033597562,0.0001527162,-632.8313,-235.66876,-608.3063,watch_2
26234924725253,0.10767702,-0.21475583,9.7609215,0.00076358096,0.0009162972,-0.0010690134,-633.6938,-238.05,-607.875,watch_2
26234919610149,0.10767702,-0.21475583,9.7609215,0.00076358096,0.0009162972,-0.0010690134,-633.6938,-238.05,-607.875,watch_2
26234935294211,0.10767702,-0.21475583,9.7609215,0.00076358096,0.0009162972,-0.0010690134,-633.6938,-238.05,-607.875,watch_2
26234945294159,0.10767702,-0.21475583,9.7609215,0.00076358096,0.0009162972,-0.0010690134,-633.22504,-237.99376,-607.8375,watch_2
26234944348222,0.11724831,-0.21475583,9.756136,0.0019853106,-0.0051923506,-0.0010690134,-633.22504,-237.99376,-607.8375,watch_2
26234939233118,0.11724831,-0.21475583,9.756136,0.0019853106,-0.0051923506,-0.0010690134,-634.6875,-239.04376,-607.4625,watch_2
26234955294107,0.11724831,-0.21475583,9.756136,0.0019853106,-0.0051923506,-0.0010690134,-634.6875,-239.04376,-607.4625,watch_2
26234965294055,0.11724831,-0.21475583,9.756136,0.0019853106,-0.0051923506,-0.0010690134,-633.1313,-238.40627,-608.0625,watch_2
26234975294003,0.12203395,-0.21475583,9.75135,-0.0004581486,-0.003970621,-0.0010690134,-632.92505,-236.70001,-606.75,watch_2
26234964001243,0.12203395,-0.21475583,9.75135,-0.0004581486,-0.003970621,-0.0010690134,-632.92505,-236.70001,-606.75,watch_2
26234958886139,0.12203395,-0.21475583,9.75135,-0.0004581486,-0.003970621,-0.0010690134,-632.92505,-236.70001,-606.75,watch_2
26234985293951,0.12203395,-0.21475583,9.75135,-0.0004581486,-0.003970621,-0.0010690134,-631.59375,-236.64375,-608.2125,watch_2
26234983624264,0.1268196,-0.21475583,9.775279,-0.0004581486,-0.003970621,-0.0010690134,-631.59375,-236.64375,-608.2125,watch_2
26234978509159,0.1268196,-0.21475583,9.775279,0.00076358096,0.0009162972,-0.0010690134,-631.59375,-236.64375,-608.2125,watch_2
26234995293899,0.1268196,-0.21475583,9.775279,0.00076358096,0.0009162972,-0.0010690134,-632.47504,-236.32501,-608.92505,watch_2
26235005293847,0.1268196,-0.21475583,9.775279,0.00076358096,0.0009162972,-0.0010690134,-632.5875,-237.31876,-609.4313,watch_2
26235003247232,0.10289137,-0.21954148,9.75135,0.00076358096,0.0009162972,-0.0010690134,-632.5875,-237.31876,-609.4313,watch_2
26234998132128,0.10289137,-0.21954148,9.75135,-0.0004581486,0.0070249448,0.0001527162,-631.72504,-237.7875,-608.4,watch_2
26235015293795,0.10289137,-0.21954148,9.75135,-0.0004581486,0.0070249448,0.0001527162,-631.72504,-237.7875,-608.4,watch_2
26235025293743,0.10289137,-0.21954148,9.75135,-0.0004581486,0.0070249448,0.0001527162,-632.775,-236.51251,-608.36255,watch_2
26235022900253,0.09332009,-0.21954148,9.7609215,-0.0004581486,0.0070249448,0.0001527162,-632.775,-236.51251,-608.36255,watch_2
26235017785149,0.09332009,-0.21954148,9.7609215,0.00076358096,0.0058032153,0.0001527162,-632.775,-236.51251,-608.36255,watch_2
26235035293691,0.09332009,-0.21954148,9.7609215,0.00076358096,0.0058032153,0.0001527162,-632.775,-236.51251,-608.36255,watch_2
26235045293639,0.09332009,-0.21954148,9.7609215,0.00076358096,0.0058032153,0.0001527162,-632.9625,-236.6625,-609.2438,watch_2
26235037408118,0.09332009,-0.21954148,9.7609215,-0.0004581486,-0.0015271619,0.0001527162,-635.36255,-236.51251,-610.40625,watch_2
26235055293586,0.09332009,-0.21954148,9.75135,-0.0004581486,-0.0015271619,0.0001527162,-635.36255,-236.51251,-610.40625,watch_2
26235042523222,0.09332009,-0.21954148,9.75135,-0.0004581486,-0.0015271619,0.0001527162,-635.36255,-236.51251,-610.40625,watch_2
26235065293534,0.09332009,-0.21954148,9.75135,-0.0004581486,-0.0015271619,0.0001527162,-632.325,-236.11876,-610.8188,watch_2
26235062176243,0.11724831,-0.21475583,9.756136,-0.0004581486,-0.0015271619,0.0001527162,-632.325,-236.11876,-610.8188,watch_2
26235057061139,0.11724831,-0.21475583,9.756136,-0.0004581486,-0.0051923506,0.0001527162,-632.9625,-236.64375,-609.97504,watch_2
26235075293482,0.11724831,-0.21475583,9.756136,-0.0004581486,-0.0051923506,0.0001527162,-632.9625,-236.64375,-609.97504,watch_2
26235085293430,0.11724831,-0.21475583,9.756136,-0.0004581486,-0.0051923506,0.0001527162,-633.6938,-235.20001,-609.3188,watch_2
26235081799264,0.12203395,-0.21954148,9.756136,-0.0004581486,-0.003970621,-0.0010690134,-633.48755,-236.34377,-607.72504,watch_2
26235095293378,0.12203395,-0.21954148,9.756136,-0.0004581486,-0.003970621,-0.0010690134,-633.48755,-236.34377,-607.72504,watch_2
26235076684159,0.12203395,-0.21954148,9.756136,-0.0004581486,-0.003970621,-0.0010690134,-633.48755,-236.34377,-607.72504,watch_2
26235105293326,0.12203395,-0.21954148,9.756136,-0.0004581486,-0.003970621,-0.0010690134,-631.42505,-236.49376,-607.6313,watch_2
26235101422232,0.12203395,-0.22432712,9.75135,-0.0004581486,0.0009162972,-0.0010690134,-631.42505,-236.49376,-607.6313,watch_2
26235096307128,0.12203395,-0.22432712,9.75135,-0.0004581486,0.0009162972,-0.0010690134,-631.42505,-236.49376,-607.6313,watch_2
26235115293274,0.12203395,-0.22432712,9.75135,-0.0004581486,0.0009162972,-0.0010690134,-633.73126,-238.31252,-609.3188,watch_2
26235125293222,0.12203395,-0.22432712,9.75135,-0.0004581486,0.0009162972,-0.0010690134,-633.22504,-236.41876,-608.5688,watch_2
26235121075253,0.11246266,-0.22432712,9.746565,-0.0004581486,0.0058032153,0.0001527162,-632.4,-237.18752,-607.8188,watch_2
26235135293170,0.11246266,-0.22432712,9.746565,-0.0004581486,0.0058032153,0.0001527162,-632.4,-237.18752,-607.8188,watch_2
26235115960149,0.11246266,-0.22432712,9.746565,-0.0004581486,0.0058032153,0.0001527162,-632.4,-237.18752,-607.8188,watch_2
26235145293118,0.11246266,-0.22432712,9.746565,-0.0004581486,0.0058032153,0.0001527162,-634.5188,-236.02501,-608.90625,watch_2
26235140698222,0.08853444,-0.22911277,9.746565,-0.0004581486,0.004581486,0.0001527162,-634.5188,-236.02501,-608.90625,watch_2
26235135583118,0.08853444,-0.22911277,9.746565,-0.0004581486,0.004581486,0.0001527162,-634.5188,-236.02501,-608.90625,watch_2
26235155293066,0.08853444,-0.22911277,9.746565,-0.0004581486,0.004581486,0.0001527162,-632.8688,-235.95001,-609.0,watch_2
26235165293014,0.08853444,-0.22911277,9.746565,-0.0004581486,0.004581486,0.0001527162,-633.9375,-237.35626,-609.1313,watch_2
26235160351243,0.10289137,-0.21954148,9.756136,0.00076358096,0.0009162972,-0.0010690134,-633.9375,-237.35626,-609.1313,watch_2
26235155236139,0.10289137,-0.21954148,9.756136,0.00076358096,0.0009162972,-0.0010690134,-633.9375,-237.35626,-609.1313,watch_2
26235175292961,0.10289137,-0.21954148,9.756136,0.00076358096,0.0009162972,-0.0010690134,-633.91876,-237.35626,-608.7,watch_2
26235185292909,0.10289137,-0.21954148,9.756136,0.00076358096,0.0009162972,-0.0010690134,-634.1438,-236.3625,-610.275,watch_2
26235174859159,0.10289137,-0.21954148,9.756136,-0.0004581486,-0.003970621,0.0001527162,-634.1438,-236.3625,-610.275,watch_2
26235179974264,0.10289137,-0.22432712,9.741779,-0.0004581486,-0.003970621,0.0001527162,-634.1438,-236.3625,-610.275,watch_2
26235195292857,0.10289137,-0.22432712,9.741779,-0.0004581486,-0.003970621,0.0001527162,-634.91254,-236.75626,-609.60004,watch_2
26235205292805,0.10289137,-0.22432712,9.741779,-0.0004581486,-0.003970621,0.0001527162,-634.0875,-235.95001,-609.5813,watch_2
26235199597232,0.1268196,-0.21475583,9.75135,-0.0004581486,-0.003970621,0.0001527162,-634.0875,-235.95001,-609.5813,watch_2
26235194482128,0.1268196,-0.21475583,9.75135,-0.0004581486,-0.00641408,0.0001527162,-634.0875,-235.95001,-609.5813,watch_2
26235215292753,0.1268196,-0.21475583,9.75135,-0.0004581486,-0.00641408,0.0001527162,-632.8125,-235.38751,-608.625,watch_2
26235225292701,0.1268196,-0.21475583,9.75135,-0.0004581486,-0.00641408,0.0001527162,-633.6188,-237.31876,-609.11255,watch_2
26235219250253,0.14117654,-0.21954148,9.75135,-0.0004581486,-0.00641408,0.0001527162,-633.6188,-237.31876,-609.11255,watch_2
26235214135149,0.14117654,-0.21954148,9.75135,0.00076358096,-0.0015271619,0.0001527162,-633.6188,-237.31876,-609.11255,watch_2
26235235292649,0.14117654,-0.21954148,9.75135,0.00076358096,-0.0015271619,0.0001527162,-632.47504,-239.32501,-607.4625,watch_2
26235245292597,0.14117654,-0.21954148,9.75135,0.00076358096,-0.0015271619,0.0001527162,-632.6813,-238.33125,-608.3063,watch_2
26235238873222,0.11246266,-0.20997019,9.75135,0.00076358096,-0.0015271619,0.0001527162,-632.6813,-238.33125,-608.3063,watch_2
26235233758118,0.11246266,-0.20997019,9.75135,0.00076358096,0.0058032153,0.0001527162,-632.6813,-238.33125,-608.3063,watch_2
26235255292545,0.11246266,-0.20997019,9.75135,0.00076358096,0.0058032153,0.0001527162,-633.28125,-237.15001,-607.78125,watch_2
26235265292493,0.11246266,-0.20997019,9.75135,0.00076358096,0.0058032153,0.0001527162,-634.7625,-236.90627,-608.7,watch_2
26235258526243,0.09332009,-0.20997019,9.756136,-0.0004581486,0.0070249448,0.0001527162,-634.7625,-236.90627,-608.7,watch_2
26235253411139,0.09332009,-0.20997019,9.756136,-0.0004581486,0.0070249448,0.0001527162,-634.7625,-236.90627,-608.7,watch_2
26235275292441,0.09332009,-0.20997019,9.756136,-0.0004581486,0.0070249448,0.0001527162,-634.40625,-236.11876,-609.75,watch_2
26235285292389,0.09332009,-0.20997019,9.756136,-0.0004581486,0.0070249448,0.0001527162,-632.79376,-236.81252,-607.3125,watch_2
26235278149264,0.09332009,-0.22911277,9.75135,-0.0016798781,-0.0003054324,-0.0010690134,-632.79376,-236.81252,-607.3125,watch_2
26235273034159,0.09332009,-0.22911277,9.75135,-0.0016798781,-0.0003054324,-0.0010690134,-632.79376,-236.81252,-607.3125,watch_2
26235295292336,0.09332009,-0.22911277,9.75135,-0.0016798781,-0.0003054324,-0.0010690134,-634.0688,-235.63126,-611.0625,watch_2
26235305292284,0.09332009,-0.22911277,9.75135,-0.0016798781,-0.0003054324,-0.0010690134,-633.60004,-235.74376,-609.3938,watch_2
26235297802232,0.10289137,-0.22911277,9.746565,-0.0004581486,-0.003970621,-0.0010690134,-633.60004,-235.74376,-609.3938,watch_2
26235292687128,0.10289137,-0.22911277,9.746565,-0.0004581486,-0.003970621,-0.0010690134,-633.60004,-235.74376,-609.3938,watch_2
26235315292232,0.10289137,-0.22911277,9.746565,-0.0004581486,-0.003970621,-0.0010690134,-634.3313,-235.57501,-608.775,watch_2
26235325292180,0.10289137,-0.22911277,9.746565,-0.0004581486,-0.003970621,-0.0010690134,-633.03754,-235.8,-610.5,watch_2
26235317425253,0.13160525,-0.23868406,9.746565,-0.0004581486,-0.003970621,-0.0010690134,-633.03754,-235.8,-610.5,watch_2
26235312310149,0.13160525,-0.23868406,9.746565,-0.0004581486,-0.0027488915,-0.0010690134,-632.8125,-236.475,-610.40625,watch_2
26235335292128,0.13160525,-0.23868406,9.746565,-0.0004581486,-0.0027488915,-0.0010690134,-632.8125,-236.475,-610.40625,watch_2
26235345292076,0.13160525,-0.23868406,9.746565,-0.0004581486,-0.0027488915,-0.0010690134,-630.825,-238.14375,-606.09375,watch_2
26235337048222,0.12203395,-0.21954148,9.75135,0.00076358096,-0.0015271619,-0.0010690134,-630.825,-238.14375,-606.09375,watch_2
26235331933118,0.12203395,-0.21954148,9.75135,0.00076358096,-0.0015271619,-0.0010690134,-630.825,-238.14375,-606.09375,watch_2
26235355292024,0.12203395,-0.21954148,9.75135,0.00076358096,-0.0015271619,-0.0010690134,-632.04376,-236.71877,-607.8188,watch_2
26235365291972,0.12203395,-0.21954148,9.75135,0.00076358096,-0.0015271619,-0.0010690134,-631.3125,-235.8,-606.65625,watch_2
26235351586139,0.12203395,-0.21475583,9.746565,0.00076358096,0.0021380268,0.0001527162,-630.75,-237.09377,-608.2125,watch_2
26235375291920,0.12203395,-0.21475583,9.746565,0.00076358096,0.0021380268,0.0001527162,-630.75,-237.09377,-608.2125,watch_2
26235356701243,0.12203395,-0.21475583,9.746565,0.00076358096,0.0021380268,0.0001527162,-630.75,-237.09377,-608.2125,watch_2
26235385291868,0.12203395,-0.21475583,9.746565,0.00076358096,0.0021380268,0.0001527162,-632.25,-237.3,-607.6313,watch_2
26235376324264,0.09810573,-0.21475583,9.756136,0.00076358096,0.0021380268,0.0001527162,-632.25,-237.3,-607.6313,watch_2
26235371209159,0.09810573,-0.21475583,9.756136,0.00076358096,0.0058032153,0.0001527162,-632.25,-237.3,-607.6313,watch_2
26235395291816,0.09810573,-0.21475583,9.756136,0.00076358096,0.0058032153,0.0001527162,-632.1188,-235.83751,-609.5063,watch_2
26235405291764,0.09810573,-0.21475583,9.756136,0.00076358096,0.0058032153,0.0001527162,-632.25,-237.00002,-609.1313,watch_2
26235395977232,0.09332009,-0.21475583,9.75135,0.00076358096,0.0058032153,0.0001527162,-632.25,-237.00002,-609.1313,watch_2
26235390862128,0.09332009,-0.21475583,9.75135,-0.0004581486,0.0033597562,0.0001527162,-632.25,-237.00002,-609.1313,watch_2
26235415291711,0.09332009,-0.21475583,9.75135,-0.0004581486,0.0033597562,0.0001527162,-634.03125,-235.66876,-608.8688,watch_2
26235425291659,0.09332009,-0.21475583,9.75135,-0.0004581486,0.0033597562,0.0001527162,-632.28754,-234.58125,-609.65625,watch_2
26235415600253,0.10767702,-0.20997019,9.756136,-0.0004581486,0.0033597562,0.0001527162,-632.28754,-234.58125,-609.65625,watch_2
26235410485149,0.10767702,-0.20997019,9.756136,-0.0004581486,-0.003970621,0.0001527162,-632.28754,-234.58125,-609.65625,watch_2
26235435291607,0.10767702,-0.20997019,9.756136,-0.0004581486,-0.003970621,0.0001527162,-634.65,-235.9125,-608.04376,watch_2
26235445291555,0.10767702,-0.20997019,9.756136,-0.0004581486,-0.003970621,0.0001527162,-633.0563,-236.25002,-609.4313,watch_2
26235435223222,0.11246266,-0.21954148,9.741779,-0.0004581486,-0.003970621,0.0001527162,-633.0563,-236.25002,-609.4313,watch_2
26235430108118,0.11246266,-0.21954148,9.741779,-0.0004581486,-0.003970621,0.0001527162,-633.0563,-236.25002,-609.4313,watch_2
26235455291503,0.11246266,-0.21954148,9.741779,-0.0004581486,-0.003970621,0.0001527162,-634.0688,-237.225,-609.3188,watch_2
26235449761139,0.11724831,-0.22911277,9.741779,-0.0004581486,-0.0003054324,0.0001527162,-634.0688,-237.225,-609.3188,watch_2
26235454876243,0.11724831,-0.22911277,9.741779,-0.0004581486,-0.0003054324,0.0001527162,-634.0688,-237.225,-609.3188,watch_2
26235465291451,0.11724831,-0.22911277,9.741779,-0.0004581486,-0.0003054324,0.0001527162,-633.15,-236.79376,-610.40625,watch_2
26235475291399,0.11724831,-0.22911277,9.741779,-0.0004581486,-0.0003054324,0.0001527162,-633.60004,-235.74376,-609.3938,watch_2
26235474499264,0.11246266,-0.22911277,9.75135,0.00076358096,0.0009162972,0.0001527162,-633.60004,-235.74376,-609.3938,watch_2
26235469384159,0.11246266,-0.22911277,9.75135,0.00076358096,0.0009162972,0.0001527162,-633.60004,-235.74376,-609.3938,watch_2
26235485291347,0.11246266,-0.22911277,9.75135,0.00076358096,0.0009162972,0.0001527162,-632.47504,-236.32501,-608.92505,watch_2
26235495291295,0.11246266,-0.22911277,9.75135,0.00076358096,0.0009162972,0.0001527162,-633.9938,-236.49376,-609.65625,watch_2
26235489037128,0.11246266,-0.22911277,9.75135,0.00076358096,0.004581486,0.0001527162,-633.9938,-236.49376,-609.65625,watch_2
26235494152232,0.10289137,-0.22432712,9.746565,0.00076358096,0.004581486,0.0001527162,-632.1375,-235.81876,-609.9563,watch_2
26235505291243,0.10289137,-0.22432712,9.746565,0.00076358096,0.004581486,0.0001527162,-632.1375,-235.81876,-609.9563,watch_2
26235515291191,0.10289137,-0.22432712,9.746565,0.00076358096,0.004581486,0.0001527162,-632.60626,-234.76875,-609.525,watch_2
26235513775253,0.09332009,-0.20518455,9.7609215,-0.0004581486,0.0058032153,0.0001527162,-632.60626,-234.76875,-609.525,watch_2
26235508660149,0.09332009,-0.20518455,9.7609215,-0.0004581486,0.0058032153,0.0001527162,-632.60626,-234.76875,-609.525,watch_2
26235525291139,0.09332009,-0.20518455,9.7609215,-0.0004581486,0.0058032153,0.0001527162,-633.6188,-235.74376,-609.6938,watch_2
26235535291086,0.09332009,-0.20518455,9.7609215,-0.0004581486,0.0058032153,0.0001527162,-633.6188,-235.74376,-609.6938,watch_2
26235533398222,0.09332009,-0.22911277,9.746565,-0.0004581486,-0.0015271619,0.0001527162,-633.6188,-235.74376,-609.6938,watch_2
26235528283118,0.09332009,-0.22911277,9.746565,-0.0004581486,-0.0015271619,0.0001527162,-633.6188,-235.74376,-609.6938,watch_2
26235545291034,0.09332009,-0.22911277,9.746565,-0.0004581486,-0.0015271619,0.0001527162,-632.0813,-236.68126,-609.7125,watch_2
26235555290982,0.09332009,-0.22911277,9.746565,-0.0004581486,-0.0015271619,0.0001527162,-633.78754,-235.89375,-609.9938,watch_2
26235553051243,0.1268196,-0.23389842,9.756136,-0.0004581486,-0.0015271619,0.0001527162,-633.78754,-235.89375,-609.9938,watch_2
26235565290930,0.1268196,-0.23389842,9.756136,-0.0004581486,-0.00763581,-0.0010690134,-633.54376,-235.01251,-610.2,watch_2
26235575290878,0.1268196,-0.23389842,9.756136,-0.0004581486,-0.00763581,-0.0010690134,-633.54376,-235.01251,-610.2,watch_2
26235547936139,0.1268196,-0.23389842,9.756136,-0.0004581486,-0.00763581,-0.0010690134,-633.54376,-235.01251,-610.2,watch_2
26235572674264,0.1268196,-0.21954148,9.75135,-0.0004581486,-0.00763581,-0.0010690134,-633.54376,-235.01251,-610.2,watch_2
26235585290826,0.1268196,-0.21954148,9.75135,-0.0004581486,-0.003970621,0.0001527162,-633.3188,-237.1125,-609.9563,watch_2
26235567559159,0.1268196,-0.21954148,9.75135,-0.0004581486,-0.003970621,0.0001527162,-633.3188,-237.1125,-609.9563,watch_2
26235595290774,0.1268196,-0.21954148,9.75135,-0.0004581486,-0.003970621,0.0001527162,-634.7438,-235.01251,-610.7625,watch_2
26235592328222,0.12203395,-0.22432712,9.741779,-0.0004581486,-0.003970621,0.0001527162,-634.7438,-235.01251,-610.7625,watch_2
26235587213118,0.12203395,-0.22432712,9.741779,0.00076358096,0.0033597562,-0.0010690134,-632.7,-235.78127,-608.71875,watch_2
26235605290722,0.12203395,-0.22432712,9.741779,0.00076358096,0.0033597562,-0.0010690134,-632.7,-235.78127,-608.71875,watch_2
26235615290670,0.12203395,-0.22432712,9.741779,0.00076358096,0.0033597562,-0.0010690134,-632.1375,-235.81876,-610.23755,watch_2
26235611950253,0.10767702,-0.20997019,9.741779,0.00076358096,0.0033597562,-0.0010690134,-632.1375,-235.81876,-610.23755,watch_2
26235606835149,0.10767702,-0.20997019,9.741779,-0.0004581486,0.0058032153,0.0001527162,-632.1375,-235.81876,-610.23755,watch_2
26235625290618,0.10767702,-0.20997019,9.741779,-0.0004581486,0.0058032153,0.0001527162,-633.9563,-237.65627,-608.3813,watch_2
26235635290566,0.10767702,-0.20997019,9.741779,-0.0004581486,0.0058032153,0.0001527162,-632.9438,-236.68126,-608.5125,watch_2
26235631573222,0.09332009,-0.20039889,9.75135,0.00076358096,0.0033597562,0.0001527162,-632.9438,-236.68126,-608.5125,watch_2
26235626458118,0.09332009,-0.20039889,9.75135,0.00076358096,0.0033597562,0.0001527162,-632.9438,-236.68126,-608.5125,watch_2
26235645290514,0.09332009,-0.20039889,9.75135,0.00076358096,0.0033597562,0.0001527162,-632.1188,-237.1125,-609.67505,watch_2
26235655290461,0.09332009,-0.20039889,9.75135,0.00076358096,0.0033597562,0.0001527162,-634.96875,-237.0375,-610.3125,watch_2
26235651226243,0.09810573,-0.22911277,9.756136,-0.0004581486,-0.0015271619,0.0001527162,-634.96875,-237.0375,-610.3125,watch_2
26235646111139,0.09810573,-0.22911277,9.756136,-0.0004581486,-0.0015271619,0.0001527162,-634.96875,-237.0375,-610.3125,watch_2
26235665290409,0.09810573,-0.22911277,9.756136,-0.0004581486,-0.0015271619,0.0001527162,-635.2688,-235.81876,-609.4313,watch_2
26235675290357,0.09810573,-0.22911277,9.756136,-0.0004581486,-0.0015271619,0.0001527162,-634.03125,-236.79376,-609.6375,watch_2
26235670849264,0.12203395,-0.23868406,9.756136,-0.0004581486,-0.0015271619,0.0001527162,-634.03125,-236.79376,-609.6375,watch_2
26235665734159,0.12203395,-0.23868406,9.756136,-0.0004581486,-0.003970621,-0.0010690134,-634.03125,-236.79376,-609.6375,watch_2
26235685290305,0.12203395,-0.23868406,9.756136,-0.0004581486,-0.003970621,-0.0010690134,-633.825,-236.32501,-609.9563,watch_2
26235695290253,0.12203395,-0.23868406,9.756136,-0.0004581486,-0.003970621,-0.0010690134,-631.8188,-235.8,-609.1875,watch_2
26235690503222,0.1268196,-0.22911277,9.741779,-0.0004581486,-0.003970621,-0.0010690134,-631.8188,-235.8,-609.1875,watch_2
26235705290201,0.1268196,-0.22911277,9.741779,-0.0004581486,-0.0027488915,0.0001527162,-631.29376,-233.90627,-608.4375,watch_2
26235685388118,0.1268196,-0.22911277,9.741779,-0.0004581486,-0.0027488915,0.0001527162,-631.29376,-233.90627,-608.4375,watch_2
26235715290149,0.1268196,-0.22911277,9.741779,-0.0004581486,-0.0027488915,0.0001527162,-632.8875,-234.82501,-608.8313,watch_2
26235710125253,0.12203395,-0.21954148,9.75135,-0.0004581486,-0.0027488915,0.0001527162,-632.8875,-234.82501,-608.8313,watch_2
26235705010149,0.12203395,-0.21954148,9.75135,0.00076358096,0.0009162972,0.0001527162,-632.8875,-234.82501,-608.8313,watch_2
26235725290097,0.12203395,-0.21954148,9.75135,0.00076358096,0.0009162972,0.0001527162,-632.8875,-234.82501,-608.8313,watch_2
26235729748222,0.10289137,-0.20518455,9.75135,0.00076358096,0.0009162972,0.0001527162,-634.05005,-237.24376,-608.28754,watch_2
26235735290045,0.10289137,-0.20518455,9.75135,0.00076358096,0.0009162972,0.0001527162,-634.05005,-237.24376,-608.28754,watch_2
26235724633118,0.10289137,-0.20518455,9.75135,0.00076358096,0.0058032153,0.0001527162,-635.28754,-236.1,-609.41254,watch_2
26235745289993,0.10289137,-0.20518455,9.75135,0.00076358096,0.0058032153,0.0001527162,-635.28754,-236.1,-609.41254,watch_2
26235755289941,0.10289137,-0.20518455,9.75135,0.00076358096,0.0058032153,0.0001527162,-634.3313,-234.3,-608.7563,watch_2
26235744286139,0.08853444,-0.20518455,9.741779,-0.0004581486,0.0033597562,0.0001527162,-634.3313,-234.3,-608.7563,watch_2
26235749401243,0.08853444,-0.20518455,9.741779,-0.0004581486,0.0033597562,0.0001527162,-634.3313,-234.3,-608.7563,watch_2
26235765289889,0.08853444,-0.20518455,9.741779,-0.0004581486,0.0033597562,0.0001527162,-631.42505,-234.90001,-609.09375,watch_2
26235775289836,0.08853444,-0.20518455,9.741779,-0.0004581486,0.0033597562,0.0001527162,-633.5063,-236.32501,-608.7563,watch_2
26235763909159,0.09332009,-0.21475583,9.75135,0.00076358096,-0.0015271619,0.0001527162,-633.5063,-236.32501,-608.7563,watch_2
26235769024264,0.09332009,-0.21475583,9.75135,0.00076358096,-0.0015271619,0.0001527162,-633.5063,-236.32501,-608.7563,watch_2
26235785289784,0.09332009,-0.21475583,9.75135,0.00076358096,-0.0015271619,0.0001527162,-633.5813,-236.86876,-609.4313,watch_2
26235795289732,0.09332009,-0.21475583,9.75135,0.00076358096,-0.0015271619,0.0001527162,-634.6313,-236.71877,-610.0125,watch_2
26235788678222,0.11246266,-0.21475583,9.746565,-0.0004581486,-0.0027488915,0.0001527162,-634.6313,-236.71877,-610.0125,watch_2
26235783563118,0.11246266,-0.21475583,9.746565,-0.0004581486,-0.0027488915,0.0001527162,-634.6313,-236.71877,-610.0125,watch_2
26235805289680,0.11246266,-0.21475583,9.746565,-0.0004581486,-0.0027488915,0.0001527162,-634.80005,-236.86876,-610.16254,watch_2
26235815289628,0.11246266,-0.21475583,9.746565,-0.0004581486,-0.0027488915,0.0001527162,-634.85626,-237.6,-609.65625,watch_2
26235808300253,0.12203395,-0.22911277,9.746565,-0.0004581486,-0.0015271619,0.0001527162,-634.85626,-237.6,-609.65625,watch_2
26235803185149,0.12203395,-0.22911277,9.746565,-0.0004581486,-0.0015271619,0.0001527162,-634.85626,-237.6,-609.65625,watch_2
26235825289576,0.12203395,-0.22911277,9.746565,-0.0004581486,-0.0015271619,0.0001527162,-634.1813,-236.96251,-609.2063,watch_2
26235827954264,0.1268196,-0.2434697,9.741779,-0.0016798781,0.0009162972,-0.0010690134,-632.17505,-236.26875,-609.46875,watch_2
26235822839159,0.1268196,-0.2434697,9.741779,-0.0016798781,0.0009162972,-0.0010690134,-632.17505,-236.26875,-609.46875,watch_2
26235835289524,0.1268196,-0.2434697,9.741779,-0.0016798781,0.0009162972,-0.0010690134,-632.17505,-236.26875,-609.46875,watch_2
26235845289472,0.1268196,-0.2434697,9.741779,-0.0016798781,0.0009162972,-0.0010690134,-633.5813,-236.86876,-609.4313,watch_2
26235847577232,0.10767702,-0.253041,9.746565,-0.0004581486,0.0009162972,0.0001527162,-632.60626,-234.76875,-609.525,watch_2
26235842462128,0.10767702,-0.253041,9.746565,-0.0004581486,0.0009162972,0.0001527162,-632.60626,-234.76875,-609.525,watch_2
26235855289420,0.10767702,-0.253041,9.746565,-0.0004581486,0.0009162972,0.0001527162,-632.60626,-234.76875,-609.525,watch_2
26235865289368,0.10767702,-0.253041,9.746565,-0.0004581486,0.0009162972,0.0001527162,-634.23755,-237.37502,-609.9,watch_2
26235875289316,0.10289137,-0.22432712,9.736994,-0.0004581486,0.0009162972,0.0001527162,-633.9938,-236.51251,-609.075,watch_2
26235867199264,0.10289137,-0.22432712,9.736994,-0.0004581486,0.0009162972,0.0001527162,-633.9938,-236.51251,-609.075,watch_2
26235885289264,0.10289137,-0.22432712,9.736994,-0.0004581486,0.0033597562,0.0001527162,-633.84375,-236.30626,-610.96875,watch_2
26235862084159,0.10289137,-0.22432712,9.736994,-0.0004581486,0.0033597562,0.0001527162,-633.84375,-236.30626,-610.96875,watch_2
26235895289211,0.10767702,-0.20039889,9.756136,-0.0004581486,0.0033597562,0.0001527162,-633.9563,-234.63751,-610.125,watch_2
26235886853222,0.10767702,-0.20039889,9.756136,-0.0004581486,0.0033597562,0.0001527162,-633.9563,-234.63751,-610.125,watch_2
26235881738118,0.10767702,-0.20039889,9.756136,0.0019853106,0.0033597562,0.0001527162,-633.9563,-234.63751,-610.125,watch_2
26235905289159,0.10767702,-0.20039889,9.756136,0.0019853106,0.0033597562,0.0001527162,-634.575,-236.43752,-609.30005,watch_2
26235915289107,0.10767702,-0.20039889,9.756136,0.0019853106,0.0033597562,0.0001527162,-634.7625,-235.33125,-609.7125,watch_2
26235906475253,0.11246266,-0.21475583,9.756136,0.0019853106,0.0033597562,0.0001527162,-634.7625,-235.33125,-609.7125,watch_2
26235901360149,0.11246266,-0.21475583,9.756136,-0.0004581486,-0.0027488915,-0.0010690134,-634.7625,-235.33125,-609.7125,watch_2
26235925289055,0.11246266,-0.21475583,9.756136,-0.0004581486,-0.0027488915,-0.0010690134,-633.3375,-237.09377,-610.98755,watch_2
26235935289003,0.11246266,-0.21475583,9.756136,-0.0004581486,-0.0027488915,-0.0010690134,-632.90625,-236.40001,-608.25,watch_2
26235926129264,0.1363909,-0.21475583,9.736994,-0.0004581486,-0.0027488915,-0.0010690134,-632.90625,-236.40001,-608.25,watch_2
26235921014159,0.1363909,-0.21475583,9.736994,-0.0004581486,-0.00641408,-0.0010690134,-632.90625,-236.40001,-608.25,watch_2
26235945288951,0.1363909,-0.21475583,9.736994,-0.0004581486,-0.00641408,-0.0010690134,-633.03754,-235.8,-610.2,watch_2
26235955288899,0.13160525,-0.22432712,9.756136,-0.0004581486,0.0009162972,0.0001527162,-633.7125,-236.75626,-609.0188,watch_2
26235940637128,0.13160525,-0.22432712,9.756136,-0.0004581486,0.0009162972,0.0001527162,-633.7125,-236.75626,-609.0188,watch_2
26235945752232,0.13160525,-0.22432712,9.756136,-0.0004581486,0.0009162972,0.0001527162,-633.7125,-236.75626,-609.0188,watch_2
26235965288847,0.13160525,-0.22432712,9.756136,-0.0004581486,0.0009162972,0.0001527162,-633.97504,-237.63751,-609.41254,watch_2
26235975288795,0.10289137,-0.23389842,9.746565,-0.0004581486,0.0009162972,0.0001527162,-633.91876,-236.88751,-610.9313,watch_2
26235965374264,0.10289137,-0.23389842,9.746565,-0.0004581486,0.008246674,0.0001527162,-633.91876,-236.88751,-610.9313,watch_2
26235960259159,0.10289137,-0.23389842,9.746565,-0.0004581486,0.008246674,0.0001527162,-633.91876,-236.88751,-610.9313,watch_2
26235985288743,0.10289137,-0.23389842,9.746565,-0.0004581486,0.008246674,0.0001527162,-632.2688,-235.70625,-610.125,watch_2
26235985028222,0.10767702,-0.23868406,9.746565,0.00076358096,0.004581486,0.0001527162,-632.85004,-235.65001,-609.3188,watch_2
26235995288691,0.10767702,-0.23868406,9.746565,0.00076358096,0.004581486,0.0001527162,-632.85004,-235.65001,-609.3188,watch_2
26235979913118,0.10767702,-0.23868406,9.746565,0.00076358096,0.004581486,0.0001527162,-632.85004,-235.65001,-609.3188,watch_2
26236005288639,0.10767702,-0.23868406,9.746565,0.00076358096,0.004581486,0.0001527162,-634.66876,-236.98126,-611.0063,watch_2
26236004651243,0.10767702,-0.22432712,9.741779,0.00076358096,-0.0051923506,0.0001527162,-634.66876,-236.98126,-611.0063,watch_2
26235999536139,0.10767702,-0.22432712,9.741779,0.00076358096,-0.0051923506,0.0001527162,-633.9938,-236.49376,-609.65625,watch_2
26236015288586,0.10767702,-0.22432712,9.741779,0.00076358096,-0.0051923506,0.0001527162,-633.9938,-236.49376,-609.65625,watch_2
26236025288534,0.10767702,-0.22432712,9.741779,0.00076358096,-0.0051923506,0.0001527162,-634.3125,-235.08751,-611.28754,watch_2
26236019189159,0.12203395,-0.21475583,9.741779,0.00076358096,-0.0027488915,0.0001527162,-633.86255,-236.62502,-609.48755,watch_2
26236035288482,0.12203395,-0.21475583,9.741779,0.00076358096,-0.0027488915,0.0001527162,-633.86255,-236.62502,-609.48755,watch_2
26236024304264,0.12203395,-0.21475583,9.741779,0.00076358096,-0.0027488915,0.0001527162,-634.3125,-235.08751,-611.28754,watch_2
26236045288430,0.12203395,-0.21475583,9.741779,0.00076358096,-0.0027488915,0.0001527162,-634.53754,-236.00626,-609.3375,watch_2
26236038812128,0.11724831,-0.21475583,9.746565,0.00076358096,0.0021380268,0.0001527162,-634.53754,-236.00626,-609.3375,watch_2
26236043927232,0.11724831,-0.21475583,9.746565,0.00076358096,0.0021380268,0.0001527162,-634.53754,-236.00626,-609.3375,watch_2
26236055288378,0.11724831,-0.21475583,9.746565,0.00076358096,0.0021380268,0.0001527162,-633.46875,-235.87502,-609.525,watch_2
26236065288326,0.11724831,-0.21475583,9.746565,0.00076358096,0.0021380268,0.0001527162,-633.6375,-234.61876,-609.65625,watch_2
26236063549264,0.10767702,-0.21954148,9.741779,-0.0004581486,-0.0015271619,-0.0010690134,-633.6375,-234.61876,-609.65625,watch_2
26236058434159,0.10767702,-0.21954148,9.741779,-0.0004581486,-0.0015271619,-0.0010690134,-633.6375,-234.61876,-609.65625,watch_2
26236075288274,0.10767702,-0.21954148,9.741779,-0.0004581486,-0.0015271619,-0.0010690134,-633.6188,-237.31876,-608.3813,watch_2
26236085288222,0.10767702,-0.21954148,9.741779,-0.0004581486,-0.0015271619,-0.0010690134,-632.71875,-235.76251,-610.1813,watch_2
26236083203222,0.11724831,-0.22432712,9.75135,-0.0004581486,-0.0015271619,-0.0010690134,-632.90625,-236.38126,-608.53125,watch_2
26236095288170,0.11724831,-0.22432712,9.75135,-0.0004581486,-0.0015271619,-0.0010690134,-632.90625,-236.38126,-608.53125,watch_2
26236078088118,0.11724831,-0.22432712,9.75135,-0.0004581486,-0.0015271619,-0.0010690134,-632.90625,-236.38126,-608.53125,watch_2
26236105288118,0.11724831,-0.22432712,9.75135,-0.0004581486,-0.0015271619,-0.0010690134,-635.8125,-235.1625,-610.575,watch_2
26236102826243,0.10767702,-0.21954148,9.736994,-0.0004581486,0.0033597562,0.0001527162,-635.8125,-235.1625,-610.575,watch_2
26236115288066,0.10767702,-0.21954148,9.736994,-0.0004581486,0.0033597562,0.0001527162,-632.9625,-237.91876,-609.6938,watch_2
26236097711139,0.10767702,-0.21954148,9.736994,-0.0004581486,0.0033597562,0.0001527162,-632.9625,-237.91876,-609.6938,watch_2
26236125288014,0.10767702,-0.21954148,9.736994,-0.0004581486,0.0033597562,0.0001527162,-634.3688,-235.51875,-611.25,watch_2
26236122479264,0.09810573,-0.22432712,9.746565,-0.0004581486,0.004581486,0.0001527162,-634.3688,-235.51875,-611.25,watch_2
26236117364159,0.09810573,-0.22432712,9.746565,-0.0004581486,0.004581486,0.0001527162,-634.3688,-235.51875,-611.25,watch_2
26236135287961,0.09810573,-0.22432712,9.746565,-0.0004581486,0.004581486,0.0001527162,-633.09375,-235.425,-607.91254,watch_2
26236145287909,0.09810573,-0.22432712,9.746565,-0.0004581486,0.004581486,0.0001527162,-633.0,-234.26251,-609.1875,watch_2
26236142102232,0.09810573,-0.20518455,9.746565,0.00076358096,-0.0003054324,0.0001527162,-633.0,-234.26251,-609.1875,watch_2
26236136987128,0.09810573,-0.20518455,9.746565,0.00076358096,-0.0003054324,0.0001527162,-633.0,-234.26251,-609.1875,watch_2
26236155287857,0.09810573,-0.20518455,9.746565,0.00076358096,-0.0003054324,0.0001527162,-633.075,-234.975,-609.7125,watch_2
26236165287805,0.09810573,-0.20518455,9.746565,0.00076358096,-0.0003054324,0.0001527162,-633.075,-236.23126,-610.16254,watch_2
26236161724264,0.10767702,-0.21475583,9.746565,0.00076358096,-0.0027488915,-0.0010690134,-633.075,-236.23126,-610.16254,watch_2
26236156609159,0.10767702,-0.21475583,9.746565,0.00076358096,-0.0027488915,-0.0010690134,-633.075,-236.23126,-610.16254,watch_2
26236185287701,0.10767702,-0.21475583,9.746565,0.00076358096,-0.0027488915,-0.0010690134,-634.3875,-235.81876,-610.5,watch_2
26236175287753,0.10767702,-0.21475583,9.746565,0.00076358096,-0.0027488915,-0.0010690134,-634.3875,-235.81876,-610.5,watch_2
26236176263118,0.1268196,-0.23389842,9.75135,-0.0004581486,-0.0015271619,0.0001527162,-634.3875,-235.81876,-610.5,watch_2
26236181378222,0.1268196,-0.23389842,9.75135,-0.0004581486,-0.0015271619,0.0001527162,-634.3875,-235.81876,-610.5,watch_2
26236195287649,0.1268196,-0.23389842,9.75135,-0.0004581486,-0.0015271619,0.0001527162,-634.42505,-236.58751,-608.6813,watch_2
26236205287597,0.1268196,-0.23389842,9.75135,-0.0004581486,-0.0015271619,0.0001527162,-633.84375,-236.32501,-610.23755,watch_2
26236201001243,0.11246266,-0.2434697,9.732208,-0.0004581486,-0.0015271619,0.0001527162,-633.84375,-236.32501,-610.23755,watch_2
26236195886139,0.11246266,-0.2434697,9.732208,-0.0016798781,-0.0015271619,-0.0010690134,-633.84375,-236.32501,-610.23755,watch_2
26236215287545,0.11246266,-0.2434697,9.732208,-0.0016798781,-0.0015271619,-0.0010690134,-634.1438,-236.3625,-610.275,watch_2
26236225287493,0.11246266,-0.2434697,9.732208,-0.0016798781,-0.0015271619,-0.0010690134,-633.2063,-235.95001,-610.78125,watch_2
26236220654264,0.11724831,-0.22911277,9.736994,0.00076358096,0.0021380268,0.0001527162,-633.2063,-235.95001,-610.78125,watch_2
26236215539159,0.11724831,-0.22911277,9.736994,0.00076358096,0.0021380268,0.0001527162,-633.2063,-235.95001,-610.78125,watch_2
26236235287441,0.11724831,-0.22911277,9.736994,0.00076358096,0.0021380268,0.0001527162,-634.8188,-235.74376,-610.125,watch_2
26236245287389,0.09810573,-0.20997019,9.75135,0.00076358096,0.0058032153,0.0001527162,-632.04376,-234.80626,-610.7625,watch_2
26236240277232,0.09810573,-0.20997019,9.75135,0.00076358096,0.0058032153,0.0001527162,-632.04376,-234.80626,-610.7625,watch_2
26236235162128,0.09810573,-0.20997019,9.75135,0.00076358096,0.0058032153,0.0001527162,-632.04376,-234.80626,-610.7625,watch_2
26236255287336,0.09810573,-0.20997019,9.75135,0.00076358096,0.0058032153,0.0001527162,-632.04376,-234.80626,-610.7625,watch_2
26236254785149,0.09332009,-0.21954148,9.736994,-0.0004581486,0.0021380268,0.0001527162,-631.42505,-238.85626,-604.8188,watch_2
26236275287232,0.11724831,-0.22911277,9.741779,-0.0004581486,-0.00641408,0.0001527162,-633.8813,-238.51875,-607.42505,watch_2
26236274438118,0.11724831,-0.22911277,9.741779,-0.0004581486,-0.00641408,0.0001527162,-633.8813,-238.51875,-607.42505,watch_2
26236295287128,0.13160525,-0.22911277,9.736994,-0.0004581486,-0.00641408,0.0001527162,-633.8813,-238.51875,-607.42505,watch_2
26236315287024,0.13160525,-0.22911277,9.736994,0.00076358096,-0.003970621,0.0001527162,-630.6938,-238.25626,-606.9375,watch_2
26236259900253,0.13160525,-0.22911277,9.736994,-0.0004581486,-0.00641408,0.0001527162,-633.8813,-238.51875,-607.42505,watch_2
26236279553222,0.13160525,-0.22911277,9.736994,-0.0004581486,-0.00641408,0.0001527162,-633.8813,-238.51875,-607.42505,watch_2
26236305287076,0.13160525,-0.22911277,9.736994,0.00076358096,-0.003970621,0.0001527162,-633.8813,-238.51875,-607.42505,watch_2
26236299176243,0.13160525,-0.22911277,9.736994,0.00076358096,-0.003970621,0.0001527162,-633.8813,-238.51875,-607.42505,watch_2
26236294061139,0.13160525,-0.22911277,9.736994,0.00076358096,-0.003970621,0.0001527162,-633.8813,-238.51875,-607.42505,watch_2
26236285287180,0.13160525,-0.22911277,9.736994,0.00076358096,-0.003970621,0.0001527162,-633.8813,-238.51875,-607.42505,watch_2
26236265287284,0.11724831,-0.22911277,9.741779,-0.0004581486,-0.00641408,0.0001527162,-633.8813,-238.51875,-607.42505,watch_2
26236318829264,0.10289137,-0.20039889,9.756136,0.00076358096,-0.003970621,0.0001527162,-630.6938,-238.25626,-606.9375,watch_2
26236325286972,0.10289137,-0.20039889,9.756136,0.00076358096,-0.003970621,0.0001527162,-630.6938,-238.25626,-606.9375,watch_2
26236313714159,0.10289137,-0.20039889,9.756136,0.00076358096,0.004581486,0.0001527162,-630.6938,-238.25626,-606.9375,watch_2
26236345286868,0.10289137,-0.20039889,9.756136,0.00076358096,0.004581486,0.0001527162,-631.21875,-239.06252,-605.4563,watch_2
26236335286920,0.10289137,-0.20039889,9.756136,0.00076358096,0.004581486,0.0001527162,-631.21875,-239.06252,-605.4563,watch_2
26236338452232,0.09810573,-0.20039889,9.756136,0.00076358096,0.004581486,0.0001527162,-631.21875,-239.06252,-605.4563,watch_2
26236333337128,0.09810573,-0.20039889,9.756136,0.00076358096,0.0058032153,0.0001527162,-631.21875,-239.06252,-605.4563,watch_2
26236355286816,0.09810573,-0.20039889,9.756136,0.00076358096,0.0058032153,0.0001527162,-630.2438,-238.5375,-604.5188,watch_2
26236365286764,0.09810573,-0.20039889,9.756136,0.00076358096,0.0058032153,0.0001527162,-633.075,-236.56876,-607.66876,watch_2
26236358075253,0.09332009,-0.23389842,9.746565,-0.0004581486,-0.0015271619,0.0001527162,-633.075,-236.56876,-607.66876,watch_2
26236352960149,0.09332009,-0.23389842,9.746565,-0.0004581486,-0.0015271619,0.0001527162,-633.075,-236.56876,-607.66876,watch_2
26236375286711,0.09332009,-0.23389842,9.746565,-0.0004581486,-0.0015271619,0.0001527162,-632.25,-235.725,-608.66254,watch_2
26236385286659,0.09332009,-0.23389842,9.746565,-0.0004581486,-0.0015271619,0.0001527162,-633.6375,-236.02501,-609.67505,watch_2
26236377728222,0.10767702,-0.2434697,9.736994,-0.0004581486,-0.0015271619,0.0001527162,-633.6375,-236.02501,-609.67505,watch_2
26236372613118,0.10767702,-0.2434697,9.736994,-0.0004581486,-0.003970621,0.0001527162,-633.6375,-236.02501,-609.67505,watch_2
26236395286607,0.10767702,-0.2434697,9.736994,-0.0004581486,-0.003970621,0.0001527162,-633.6188,-236.06252,-608.36255,watch_2
26236397351243,0.12203395,-0.22911277,9.741779,-0.0004581486,-0.003970621,0.0001527162,-633.6188,-236.06252,-608.36255,watch_2
26236405286555,0.12203395,-0.22911277,9.741779,-0.0004581486,-0.003970621,0.0001527162,-633.6188,-236.06252,-608.36255,watch_2
26236392236139,0.12203395,-0.22911277,9.741779,0.00076358096,0.0009162972,0.0001527162,-633.97504,-236.51251,-608.6438,watch_2
26236415286503,0.12203395,-0.22911277,9.741779,0.00076358096,0.0009162972,0.0001527162,-633.97504,-236.51251,-608.6438,watch_2
26236425286451,0.12203395,-0.22911277,9.741779,0.00076358096,0.0009162972,0.0001527162,-633.7125,-236.75626,-609.0188,watch_2
26236411889159,0.10767702,-0.21954148,9.75135,0.00076358096,0.0021380268,0.0001527162,-633.7125,-236.75626,-609.0188,watch_2
26236417004264,0.10767702,-0.21954148,9.75135,0.00076358096,0.0021380268,0.0001527162,-633.7125,-236.75626,-609.0188,watch_2
26236435286399,0.10767702,-0.21954148,9.75135,0.00076358096,0.0021380268,0.0001527162,-634.6313,-237.01875,-608.8125,watch_2
26236445286347,0.10289137,-0.20518455,9.75135,0.00076358096,0.0021380268,0.0001527162,-632.775,-236.51251,-607.9313,watch_2
26236436627232,0.10289137,-0.20518455,9.75135,0.00076358096,0.0021380268,0.0001527162,-632.775,-236.51251,-607.9313,watch_2
26236431512128,0.10289137,-0.20518455,9.75135,-0.0004581486,-0.0003054324,0.0001527162,-632.775,-236.51251,-607.9313,watch_2
26236455286295,0.10289137,-0.20518455,9.75135,-0.0004581486,-0.0003054324,0.0001527162,-633.3188,-237.1125,-610.2563,watch_2
26236465286243,0.11724831,-0.21475583,9.741779,-0.0004581486,-0.0003054324,0.0001527162,-633.075,-237.65627,-609.8813,watch_2
26236456280253,0.11724831,-0.21475583,9.741779,-0.0004581486,-0.0003054324,0.0001527162,-633.075,-237.65627,-609.8813,watch_2
26236451165149,0.11724831,-0.21475583,9.741779,-0.0004581486,-0.0015271619,-0.0010690134,-633.075,-237.65627,-609.8813,watch_2
26236475286191,0.11724831,-0.21475583,9.741779,-0.0004581486,-0.0015271619,-0.0010690134,-634.5563,-234.88126,-609.8813,watch_2
26236485286139,0.11724831,-0.22432712,9.741779,-0.0004581486,-0.0015271619,-0.0010690134,-633.075,-236.23126,-610.16254,watch_2
26236475903222,0.11724831,-0.22432712,9.741779,-0.0004581486,-0.0015271619,-0.0010690134,-633.075,-236.23126,-610.16254,watch_2
26236470788118,0.11724831,-0.22432712,9.741779,-0.0004581486,-0.0003054324,0.0001527162,-633.075,-236.23126,-610.16254,watch_2
26236495286086,0.11724831,-0.22432712,9.741779,-0.0004581486,-0.0003054324,0.0001527162,-634.1438,-236.34377,-611.0063,watch_2
26236505286034,0.12203395,-0.22911277,9.746565,-0.0004581486,-0.0003054324,0.0001527162,-633.6938,-235.18126,-609.6188,watch_2
26236495526243,0.12203395,-0.22911277,9.746565,-0.0004581486,-0.0003054324,0.0001527162,-633.6938,-235.18126,-609.6188,watch_2
26236490411139,0.12203395,-0.22911277,9.746565,-0.0004581486,0.0009162972,0.0001527162,-633.6938,-235.18126,-609.6188,watch_2
26236515285982,0.12203395,-0.22911277,9.746565,-0.0004581486,0.0009162972,0.0001527162,-635.66254,-237.975,-610.1438,watch_2
26236525285930,0.10289137,-0.22432712,9.746565,-0.0004581486,0.0009162972,0.0001527162,-634.575,-237.8625,-609.0188,watch_2
26236515179264,0.10289137,-0.22432712,9.746565,-0.0004581486,0.0009162972,0.0001527162,-634.575,-237.8625,-609.0188,watch_2
26236510064159,0.10289137,-0.22432712,9.746565,-0.0004581486,0.0009162972,0.0001527162,-634.575,-237.8625,-609.0188,watch_2
26236535285878,0.10289137,-0.22432712,9.746565,-0.0004581486,0.0009162972,0.0001527162,-632.0813,-236.6625,-610.29376,watch_2
26236534802232,0.10289137,-0.20997019,9.746565,0.00076358096,0.0009162972,0.0001527162,-633.30005,-237.13126,-608.9438,watch_2
26236529687128,0.10289137,-0.20997019,9.746565,0.00076358096,0.0009162972,0.0001527162,-633.30005,-237.13126,-608.9438,watch_2
26236545285826,0.10289137,-0.20997019,9.746565,0.00076358096,0.0009162972,0.0001527162,-633.30005,-237.13126,-608.9438,watch_2
26236555285774,0.10289137,-0.20997019,9.746565,0.00076358096,0.0009162972,0.0001527162,-631.8938,-236.51251,-609.1313,watch_2
26236554455253,0.09332009,-0.22432712,9.75135,0.00076358096,0.0009162972,0.0001527162,-631.8938,-236.51251,-609.1313,watch_2
26236549340149,0.09332009,-0.22432712,9.75135,0.00076358096,0.0009162972,0.0001527162,-631.8938,-236.51251,-609.1313,watch_2
26236565285722,0.09332009,-0.22432712,9.75135,0.00076358096,0.0009162972,0.0001527162,-631.42505,-236.15627,-609.84375,watch_2
26236575285670,0.09332009,-0.22432712,9.75135,0.00076358096,0.0009162972,0.0001527162,-628.85626,-239.30626,-606.03754,watch_2
26236574078222,0.10767702,-0.22432712,9.75135,-0.0004581486,-0.0015271619,0.0001527162,-628.85626,-239.30626,-606.03754,watch_2
26236568963118,0.10767702,-0.22432712,9.75135,-0.0004581486,-0.0015271619,0.0001527162,-628.85626,-239.30626,-606.03754,watch_2
26236585285618,0.10767702,-0.22432712,9.75135,-0.0004581486,-0.0015271619,0.0001527162,-631.3875,-237.7875,-606.3375,watch_2
26236595285566,0.10767702,-0.22432712,9.75135,-0.0004581486,-0.0015271619,0.0001527162,-634.0125,-236.81252,-608.325,watch_2
26236593701243,0.11246266,-0.21475583,9.741779,-0.0004581486,-0.0027488915,-0.0010690134,-634.0125,-236.81252,-608.325,watch_2
26236605285514,0.11246266,-0.21475583,9.741779,-0.0004581486,-0.0027488915,-0.0010690134,-631.80005,-238.83751,-606.28125,watch_2
26236588586139,0.11246266,-0.21475583,9.741779,-0.0004581486,-0.0027488915,-0.0010690134,-631.80005,-238.83751,-606.28125,watch_2
26236615285461,0.11246266,-0.21475583,9.741779,-0.0004581486,-0.0027488915,-0.0010690134,-633.075,-236.55,-608.4,watch_2
26236613354264,0.12203395,-0.20997019,9.75135,-0.0004581486,-0.0003054324,0.0001527162,-633.075,-236.55,-608.4,watch_2
26236608239159,0.12203395,-0.20997019,9.75135,-0.0004581486,-0.0003054324,0.0001527162,-633.075,-236.55,-608.4,watch_2
26236625285409,0.12203395,-0.20997019,9.75135,-0.0004581486,-0.0003054324,0.0001527162,-631.125,-237.69376,-608.775,watch_2
26236635285357,0.12203395,-0.20997019,9.75135,-0.0004581486,-0.0003054324,0.0001527162,-633.46875,-235.87502,-609.22504,watch_2
26236632977232,0.10767702,-0.21954148,9.746565,-0.0004581486,0.0021380268,0.0001527162,-633.46875,-235.87502,-609.22504,watch_2
26236627862128,0.10767702,-0.21954148,9.746565,-0.0004581486,0.0021380268,0.0001527162,-633.46875,-235.87502,-609.22504,watch_2
26236645285305,0.10767702,-0.21954148,9.746565,-0.0004581486,0.0021380268,0.0001527162,-632.36255,-238.31252,-607.98755,watch_2
26236655285253,0.10767702,-0.21954148,9.746565,-0.0004581486,0.0021380268,0.0001527162,-633.75,-237.20625,-607.8188,watch_2
26236652630253,0.11724831,-0.22911277,9.741779,-0.0016798781,-0.0003054324,-0.0010690134,-633.75,-237.20625,-607.8188,watch_2
26236647515149,0.11724831,-0.22911277,9.741779,-0.0016798781,-0.0003054324,-0.0010690134,-633.3375,-238.9875,-608.17505,watch_2
26236665285201,0.11724831,-0.22911277,9.741779,-0.0016798781,-0.0003054324,-0.0010690134,-633.3375,-238.9875,-608.17505,watch_2
26236675285149,0.11724831,-0.22911277,9.741779,-0.0016798781,-0.0003054324,-0.0010690134,-633.075,-237.65627,-609.15,watch_2
26236667138118,0.1268196,-0.23868406,9.736994,-0.0016798781,-0.0027488915,0.0001527162,-634.0688,-235.65001,-610.3313,watch_2
26236685285097,0.1268196,-0.23868406,9.736994,-0.0016798781,-0.0027488915,0.0001527162,-634.0688,-235.65001,-610.3313,watch_2
26236672253222,0.1268196,-0.23868406,9.736994,-0.0016798781,-0.0027488915,0.0001527162,-634.0688,-235.65001,-610.3313,watch_2
26236695285045,0.1268196,-0.23868406,9.736994,-0.0016798781,-0.0027488915,0.0001527162,-631.65,-237.05626,-609.1875,watch_2
26236686761139,0.1268196,-0.21954148,9.741779,0.00076358096,-0.0003054324,0.0001527162,-631.65,-237.05626,-609.1875,watch_2
26236691876243,0.1268196,-0.21954148,9.741779,0.00076358096,-0.0003054324,0.0001527162,-631.65,-237.05626,-609.1875,watch_2
26236705284993,0.1268196,-0.21954148,9.741779,0.00076358096,-0.0003054324,0.0001527162,-633.5625,-235.46251,-609.1313,watch_2
26236715284941,0.10767702,-0.20997019,9.75135,0.00076358096,0.0021380268,0.0001527162,-634.66876,-235.87502,-609.8063,watch_2
26236711529264,0.10767702,-0.20997019,9.75135,0.00076358096,0.0021380268,0.0001527162,-634.66876,-235.87502,-609.8063,watch_2
26236706414159,0.10767702,-0.20997019,9.75135,0.00076358096,0.0021380268,0.0001527162,-634.0125,-235.21877,-610.3688,watch_2
26236725284889,0.10767702,-0.20997019,9.75135,0.00076358096,0.0021380268,0.0001527162,-634.0125,-235.21877,-610.3688,watch_2
26236735284836,0.10767702,-0.20997019,9.75135,0.00076358096,0.0021380268,0.0001527162,-633.6375,-236.04376,-609.09375,watch_2
26236731152232,0.10767702,-0.21954148,9.75135,0.00076358096,0.0021380268,0.0001527162,-633.6375,-236.04376,-609.09375,watch_2
26236726037128,0.10767702,-0.21954148,9.75135,-0.0004581486,-0.0003054324,0.0001527162,-633.6375,-236.04376,-609.09375,watch_2
26236745284784,0.10767702,-0.21954148,9.75135,-0.0004581486,-0.0003054324,0.0001527162,-634.85626,-234.45001,-611.7,watch_2
26236755284732,0.10767702,-0.21954148,9.75135,-0.0004581486,-0.0003054324,0.0001527162,-632.8125,-236.79376,-608.34375,watch_2
26236745690149,0.11246266,-0.21954148,9.75135,-0.0004581486,-0.0027488915,0.0001527162,-632.8125,-236.79376,-608.34375,watch_2
26236750805253,0.11246266,-0.21954148,9.75135,-0.0004581486,-0.0027488915,0.0001527162,-632.8125,-236.79376,-608.34375,watch_2
26236765284680,0.11246266,-0.21954148,9.75135,-0.0004581486,-0.0027488915,0.0001527162,-632.90625,-236.40001,-607.5188,watch_2
26236775284628,0.11246266,-0.21954148,9.75135,-0.0004581486,-0.0027488915,0.0001527162,-627.525,-240.84377,-605.73755,watch_2
26236765313118,0.11724831,-0.23868406,9.732208,-0.0016798781,-0.0015271619,0.0001527162,-627.525,-240.84377,-605.73755,watch_2
26236770428222,0.11724831,-0.23868406,9.732208,-0.0016798781,-0.0015271619,0.0001527162,-627.525,-240.84377,-605.73755,watch_2
26236785284576,0.11724831,-0.23868406,9.732208,-0.0016798781,-0.0015271619,0.0001527162,-632.8875,-237.50626,-608.5688,watch_2
26236795284524,0.11724831,-0.23868406,9.732208,-0.0016798781,-0.0015271619,0.0001527162,-632.4938,-238.20001,-606.7125,watch_2
26236790051243,0.11246266,-0.23868406,9.741779,0.00076358096,0.0033597562,0.0001527162,-632.4938,-238.20001,-606.7125,watch_2
26236784936139,0.11246266,-0.23868406,9.741779,0.00076358096,0.0033597562,0.0001527162,-632.4938,-238.20001,-606.7125,watch_2
26236805284472,0.11246266,-0.23868406,9.741779,0.00076358096,0.0033597562,0.0001527162,-633.2438,-236.71877,-607.8188,watch_2
26236815284420,0.11246266,-0.23868406,9.741779,0.00076358096,0.0033597562,0.0001527162,-631.03125,-235.74376,-607.65,watch_2
26236804589159,0.09810573,-0.20039889,9.756136,0.00076358096,0.0058032153,0.0001527162,-631.03125,-235.74376,-607.65,watch_2
26236809704264,0.09810573,-0.20039889,9.756136,0.00076358096,0.0058032153,0.0001527162,-631.03125,-235.74376,-607.65,watch_2
26236825284368,0.09810573,-0.20039889,9.756136,0.00076358096,0.0058032153,0.0001527162,-633.15,-235.68752,-609.35626,watch_2
26236835284316,0.09810573,-0.20039889,9.756136,0.00076358096,0.0058032153,0.0001527162,-632.775,-236.51251,-608.36255,watch_2
26236824212128,0.08853444,-0.20518455,9.765707,-0.0004581486,-0.0003054324,0.0001527162,-632.775,-236.51251,-608.36255,watch_2
26236829327232,0.08853444,-0.20518455,9.765707,-0.0004581486,-0.0003054324,0.0001527162,-632.775,-236.51251,-608.36255,watch_2
26236845284264,0.08853444,-0.20518455,9.765707,-0.0004581486,-0.0003054324,0.0001527162,-634.65,-235.9125,-608.4938,watch_2
26236855284211,0.08853444,-0.20518455,9.765707,-0.0004581486,-0.0003054324,0.0001527162,-632.2688,-237.3,-608.0813,watch_2
26236843865149,0.12203395,-0.20518455,9.736994,-0.0016798781,-0.00763581,-0.0010690134,-632.2688,-237.3,-608.0813,watch_2
26236848980253,0.12203395,-0.20518455,9.736994,-0.0016798781,-0.00763581,-0.0010690134,-632.2688,-237.3,-608.0813,watch_2
26236865284159,0.12203395,-0.20518455,9.736994,-0.0016798781,-0.00763581,-0.0010690134,-632.5875,-237.31876,-609.1313,watch_2
26236875284107,0.12203395,-0.20518455,9.736994,-0.0016798781,-0.00763581,-0.0010690134,-633.15,-237.28127,-607.8938,watch_2
26236868603222,0.14117654,-0.23389842,9.746565,-0.0016798781,-0.00641408,0.0001527162,-633.15,-237.28127,-607.8938,watch_2
26236863488118,0.14117654,-0.23389842,9.746565,-0.0016798781,-0.00641408,0.0001527162,-633.15,-237.28127,-607.8938,watch_2
26236885284055,0.14117654,-0.23389842,9.746565,-0.0016798781,-0.00641408,0.0001527162,-634.05005,-237.24376,-608.5875,watch_2
26236895284003,0.14117654,-0.23389842,9.746565,-0.0016798781,-0.00641408,0.0001527162,-632.3813,-236.71877,-609.75,watch_2
26236883111139,0.12203395,-0.2434697,9.741779,-0.0004581486,0.0009162972,0.0001527162,-632.3813,-236.71877,-609.75,watch_2
26236888226243,0.12203395,-0.2434697,9.741779,-0.0004581486,0.0009162972,0.0001527162,-632.3813,-236.71877,-609.75,watch_2
26236905283951,0.12203395,-0.2434697,9.741779,-0.0004581486,0.0009162972,0.0001527162,-632.3063,-236.45625,-607.875,watch_2
26236915283899,0.12203395,-0.2434697,9.741779,-0.0004581486,0.0009162972,0.0001527162,-633.825,-236.6625,-607.7438,watch_2
26236902764159,0.12203395,-0.23389842,9.70828,-0.0004581486,0.0009162972,0.0001527162,-633.825,-236.6625,-607.7438,watch_2
26236907879264,0.12203395,-0.23389842,9.70828,-0.0004581486,0.0009162972,0.0001527162,-633.825,-236.6625,-607.7438,watch_2
26236925283847,0.12203395,-0.23389842,9.70828,-0.0004581486,0.0009162972,0.0001527162,-633.7125,-236.77501,-608.5875,watch_2
26236935283795,0.12203395,-0.23389842,9.70828,-0.0004581486,0.0009162972,0.0001527162,-633.8063,-237.46877,-609.54376,watch_2
26236922387128,0.09332009,-0.21954148,9.75135,0.0019853106,0.0070249448,0.0001527162,-633.8063,-237.46877,-609.54376,watch_2
26236945283743,0.09332009,-0.21954148,9.75135,0.0019853106,0.0070249448,0.0001527162,-632.625,-234.75002,-610.2563,watch_2
26236927502232,0.09332009,-0.21954148,9.75135,0.0019853106,0.0070249448,0.0001527162,-632.625,-234.75002,-610.2563,watch_2
26236955283691,0.09332009,-0.21954148,9.75135,0.0019853106,0.0070249448,0.0001527162,-632.92505,-237.95625,-607.80005,watch_2
26236942040149,0.078963146,-0.20518455,9.746565,-0.0004581486,0.009468404,0.0001527162,-632.92505,-237.95625,-607.80005,watch_2
26236947155253,0.078963146,-0.20518455,9.746565,-0.0004581486,0.009468404,0.0001527162,-632.92505,-237.95625,-607.80005,watch_2
26236965283639,0.078963146,-0.20518455,9.746565,-0.0004581486,0.009468404,0.0001527162,-633.16876,-237.26251,-608.625,watch_2
26236975283586,0.078963146,-0.20518455,9.746565,-0.0004581486,0.009468404,0.0001527162,-632.41876,-239.06252,-606.46875,watch_2
26236966778222,0.083748795,-0.20518455,9.746565,-0.0004581486,0.009468404,0.0001527162,-632.41876,-239.06252,-606.46875,watch_2
26236985283534,0.083748795,-0.20518455,9.746565,0.00076358096,-0.0051923506,-0.0010690134,-632.04376,-238.29376,-606.5063,watch_2
26236961663118,0.083748795,-0.20518455,9.746565,0.00076358096,-0.0051923506,-0.0010690134,-632.04376,-238.29376,-606.5063,watch_2
26236995283482,0.083748795,-0.20518455,9.746565,0.00076358096,-0.0051923506,-0.0010690134,-631.80005,-235.83751,-607.72504,watch_2
26236981317128,0.13160525,-0.21954148,9.746565,-0.0004581486,-0.014966187,-0.0010690134,-631.80005,-235.83751,-607.72504,watch_2
26236986432232,0.13160525,-0.21954148,9.746565,-0.0004581486,-0.014966187,-0.0010690134,-631.80005,-235.83751,-607.72504,watch_2
26237005283430,0.13160525,-0.21954148,9.746565,-0.0004581486,-0.014966187,-0.0010690134,-633.8063,-236.3625,-608.4938,watch_2
26237015283378,0.13160525,-0.21954148,9.746565,-0.0004581486,-0.014966187,-0.0010690134,-634.7063,-237.43126,-609.9375,watch_2
26237006054264,0.15553348,-0.22432712,9.736994,-0.0004581486,-0.00641408,0.0001527162,-634.7063,-237.43126,-609.9375,watch_2
26237000939159,0.15553348,-0.22432712,9.736994,-0.0004581486,-0.00641408,0.0001527162,-634.7063,-237.43126,-609.9375,watch_2
26237025283326,0.15553348,-0.22432712,9.736994,-0.0004581486,-0.00641408,0.0001527162,-632.41876,-235.89375,-608.9625,watch_2
26237035283274,0.15553348,-0.22432712,9.736994,-0.0004581486,-0.00641408,0.0001527162,-632.8875,-234.82501,-608.8313,watch_2
26237020562128,0.1363909,-0.21475583,9.741779,-0.0004581486,0.009468404,0.0001527162,-632.8875,-234.82501,-608.8313,watch_2
26237025677232,0.1363909,-0.21475583,9.741779,-0.0004581486,0.009468404,0.0001527162,-632.8875,-234.82501,-608.8313,watch_2
26237045283222,0.1363909,-0.21475583,9.741779,-0.0004581486,0.009468404,0.0001527162,-633.60004,-235.74376,-609.3938,watch_2
26237055283170,0.1363909,-0.21475583,9.741779,-0.0004581486,0.009468404,0.0001527162,-633.45,-235.89375,-608.0625,watch_2
26237040215149,0.10289137,-0.22911277,9.741779,0.00076358096,0.010690134,0.0001527162,-633.45,-235.89375,-608.0625,watch_2
26237045330253,0.10289137,-0.22911277,9.741779,0.00076358096,0.010690134,0.0001527162,-633.45,-235.89375,-608.0625,watch_2
26237065283118,0.10289137,-0.22911277,9.741779,0.00076358096,0.010690134,0.0001527162,-632.5688,-237.31876,-608.8313,watch_2
26237064953222,0.083748795,-0.20997019,9.756136,0.00076358096,0.010690134,0.0001527162,-632.5688,-237.31876,-608.8313,watch_2
26237075283066,0.083748795,-0.20997019,9.756136,0.00076358096,0.0033597562,0.0001527162,-632.5688,-237.31876,-608.8313,watch_2
26237059838118,0.083748795,-0.20997019,9.756136,0.00076358096,0.0033597562,0.0001527162,-632.5688,-237.31876,-608.8313,watch_2
26237085283014,0.083748795,-0.20997019,9.756136,0.00076358096,0.0033597562,0.0001527162,-632.6813,-235.81876,-607.40625,watch_2
26237084607232,0.08853444,-0.21475583,9.741779,-0.0016798781,-0.0027488915,-0.0010690134,-633.3375,-239.00626,-607.4438,watch_2
26237079492128,0.08853444,-0.21475583,9.741779,-0.0016798781,-0.0027488915,-0.0010690134,-633.3375,-239.00626,-607.4438,watch_2
26237095282961,0.08853444,-0.21475583,9.741779,-0.0016798781,-0.0027488915,-0.0010690134,-633.3375,-239.00626,-607.4438,watch_2
26237105282909,0.08853444,-0.21475583,9.741779,-0.0016798781,-0.0027488915,-0.0010690134,-631.95,-237.26251,-607.61255,watch_2
26237104229264,0.11724831,-0.22911277,9.746565,-0.0016798781,-0.0027488915,-0.0010690134,-631.95,-237.26251,-607.61255,watch_2
26237115282857,0.11724831,-0.22911277,9.746565,-0.0004581486,-0.010079269,-0.0010690134,-633.16876,-238.85626,-607.29376,watch_2
26237099114159,0.11724831,-0.22911277,9.746565,-0.0004581486,-0.010079269,-0.0010690134,-633.16876,-238.85626,-607.29376,watch_2
26237125282805,0.11724831,-0.22911277,9.746565,-0.0004581486,-0.010079269,-0.0010690134,-630.3188,-237.65627,-606.22504,watch_2
26237123852232,0.1363909,-0.22911277,9.732208,-0.0004581486,-0.00641408,0.0001527162,-630.3188,-237.65627,-606.22504,watch_2
26237118737128,0.1363909,-0.22911277,9.732208,-0.0004581486,-0.00641408,0.0001527162,-630.3188,-237.65627,-606.22504,watch_2
26237135282753,0.1363909,-0.22911277,9.732208,-0.0004581486,-0.00641408,0.0001527162,-632.0625,-237.16876,-606.46875,watch_2
26237145282701,0.1363909,-0.22911277,9.732208,-0.0004581486,-0.00641408,0.0001527162,-632.625,-239.6625,-605.85004,watch_2
26237143506243,0.1268196,-0.23389842,9.741779,0.00076358096,0.004581486,0.0001527162,-632.625,-239.6625,-605.85004,watch_2
26237138391139,0.1268196,-0.23389842,9.741779,0.00076358096,0.004581486,0.0001527162,-632.60626,-240.7875,-606.03754,watch_2
26237155282649,0.1268196,-0.23389842,9.741779,0.00076358096,0.004581486,0.0001527162,-632.60626,-240.7875,-606.03754,watch_2
26237165282597,0.1268196,-0.23389842,9.741779,0.00076358096,0.004581486,0.0001527162,-632.025,-237.99376,-606.825,watch_2
26237163128222,0.10289137,-0.20997019,9.746565,0.00076358096,0.010690134,0.0001527162,-632.025,-237.99376,-606.825,watch_2
26237158013118,0.10289137,-0.20997019,9.746565,0.00076358096,0.010690134,0.0001527162,-632.17505,-238.18126,-606.375,watch_2
26237175282545,0.10289137,-0.20997019,9.746565,0.00076358096,0.010690134,0.0001527162,-632.17505,-238.18126,-606.375,watch_2
26237185282493,0.10289137,-0.20997019,9.746565,0.00076358096,0.010690134,0.0001527162,-632.625,-239.6625,-605.85004,watch_2
26237182782232,0.08853444,-0.21475583,9.746565,-0.0004581486,0.004581486,0.0001527162,-632.625,-239.6625,-605.85004,watch_2
26237177667128,0.08853444,-0.21475583,9.746565,-0.0004581486,0.004581486,0.0001527162,-632.625,-239.6625,-605.85004,watch_2
26237195282441,0.08853444,-0.21475583,9.746565,-0.0004581486,0.004581486,0.0001527162,-633.0563,-239.7375,-604.59375,watch_2
26237205282389,0.08853444,-0.21475583,9.746565,-0.0004581486,0.004581486,0.0001527162,-631.3875,-236.51251,-606.3188,watch_2
26237202404264,0.10289137,-0.23389842,9.741779,-0.0004581486,-0.003970621,-0.0010690134,-631.3875,-236.51251,-606.3188,watch_2
26237197289159,0.10289137,-0.23389842,9.741779,-0.0004581486,-0.003970621,-0.0010690134,-631.3875,-236.51251,-606.3188,watch_2
26237215282336,0.10289137,-0.23389842,9.741779,-0.0004581486,-0.003970621,-0.0010690134,-630.2063,-236.49376,-607.05005,watch_2
26237225282284,0.10289137,-0.23389842,9.741779,-0.0004581486,-0.003970621,-0.0010690134,-630.6188,-238.8,-607.3125,watch_2
26237222027232,0.11246266,-0.23868406,9.736994,-0.0004581486,-0.003970621,-0.0010690134,-630.6188,-238.8,-607.3125,watch_2
26237216912128,0.11246266,-0.23868406,9.736994,-0.0004581486,-0.00763581,-0.0010690134,-630.825,-238.14375,-606.375,watch_2
26237235282232,0.11246266,-0.23868406,9.736994,-0.0004581486,-0.00763581,-0.0010690134,-630.825,-238.14375,-606.375,watch_2
26237245282180,0.11246266,-0.23868406,9.736994,-0.0004581486,-0.00763581,-0.0010690134,-632.1188,-237.43126,-607.7625,watch_2
26237241681243,0.12203395,-0.23389842,9.736994,-0.0004581486,-0.00763581,-0.0010690134,-632.1188,-237.43126,-607.7625,watch_2
26237236566139,0.12203395,-0.23389842,9.736994,-0.0004581486,-0.0027488915,0.0001527162,-632.1188,-237.43126,-607.7625,watch_2
26237255282128,0.12203395,-0.23389842,9.736994,-0.0004581486,-0.0027488915,0.0001527162,-631.03125,-235.425,-608.85004,watch_2
26237265282076,0.12203395,-0.23389842,9.736994,-0.0004581486,-0.0027488915,0.0001527162,-632.36255,-236.71877,-609.0188,watch_2
26237256188118,0.12203395,-0.21954148,9.732208,0.00076358096,0.0033597562,0.0001527162,-632.36255,-236.71877,-609.0188,watch_2
26237261303222,0.12203395,-0.21954148,9.732208,0.00076358096,0.0033597562,0.0001527162,-632.36255,-236.71877,-609.0188,watch_2
26237275282024,0.12203395,-0.21954148,9.732208,0.00076358096,0.0033597562,0.0001527162,-632.34375,-236.75626,-607.275,watch_2
26237285281972,0.12203395,-0.21954148,9.732208,0.00076358096,0.0033597562,0.0001527162,-630.2625,-235.65001,-606.5625,watch_2
26237280957232,0.10289137,-0.21475583,9.736994,0.00076358096,0.0058032153,0.0001527162,-630.2625,-235.65001,-606.5625,watch_2
26237275842128,0.10289137,-0.21475583,9.736994,0.00076358096,0.0058032153,0.0001527162,-630.2625,-235.65001,-606.5625,watch_2
26237295281920,0.10289137,-0.21475583,9.736994,0.00076358096,0.0058032153,0.0001527162,-632.0813,-235.89375,-606.75,watch_2
26237305281868,0.10289137,-0.21475583,9.736994,0.00076358096,0.0058032153,0.0001527162,-633.075,-236.23126,-609.8813,watch_2
26237295464159,0.08853444,-0.20997019,9.746565,-0.0004581486,0.0021380268,0.0001527162,-633.075,-236.23126,-609.8813,watch_2
26237300579264,0.08853444,-0.20997019,9.746565,-0.0004581486,0.0021380268,0.0001527162,-633.075,-236.23126,-609.8813,watch_2
26237315281816,0.08853444,-0.20997019,9.746565,-0.0004581486,0.0021380268,0.0001527162,-632.7563,-236.21251,-608.6813,watch_2
26237325281764,0.11246266,-0.21954148,9.75135,-0.0004581486,0.0021380268,0.0001527162,-632.9625,-236.6625,-608.9438,watch_2
26237320202232,0.11246266,-0.21954148,9.75135,-0.0004581486,-0.0015271619,0.0001527162,-632.9625,-236.6625,-608.9438,watch_2
26237315087128,0.11246266,-0.21954148,9.75135,-0.0004581486,-0.0015271619,0.0001527162,-632.9625,-236.6625,-608.9438,watch_2
26237335281711,0.11246266,-0.21954148,9.75135,-0.0004581486,-0.0015271619,0.0001527162,-633.03754,-237.37502,-609.16876,watch_2
26237345281659,0.11246266,-0.21954148,9.75135,-0.0004581486,-0.0015271619,0.0001527162,-632.92505,-238.6125,-603.9563,watch_2
26237339856243,0.12203395,-0.23389842,9.746565,-0.0004581486,-0.003970621,-0.0010690134,-632.92505,-238.6125,-603.9563,watch_2
26237334741139,0.12203395,-0.23389842,9.746565,-0.0004581486,-0.003970621,-0.0010690134,-632.92505,-238.6125,-603.9563,watch_2
26237355281607,0.12203395,-0.23389842,9.746565,-0.0004581486,-0.003970621,-0.0010690134,-631.0688,-237.26251,-608.8125,watch_2
26237365281555,0.12203395,-0.23389842,9.746565,-0.0004581486,-0.003970621,-0.0010690134,-631.3875,-236.21251,-607.35004,watch_2
26237359478222,0.12203395,-0.22432712,9.741779,0.00076358096,-0.0027488915,0.0001527162,-631.3875,-236.21251,-607.35004,watch_2
26237354363118,0.12203395,-0.22432712,9.741779,0.00076358096,-0.0027488915,0.0001527162,-631.3875,-236.21251,-607.35004,watch_2
26237375281503,0.12203395,-0.22432712,9.741779,0.00076358096,-0.0027488915,0.0001527162,-633.09375,-236.53127,-609.41254,watch_2
26237385281451,0.12203395,-0.22432712,9.741779,0.00076358096,-0.0027488915,0.0001527162,-630.54376,-235.70625,-605.85004,watch_2
26237379132232,0.11724831,-0.21954148,9.741779,0.00076358096,0.0021380268,0.0001527162,-630.54376,-235.70625,-605.85004,watch_2
26237374017128,0.11724831,-0.21954148,9.741779,0.00076358096,0.0021380268,0.0001527162,-630.54376,-235.70625,-605.85004,watch_2
26237395281399,0.11724831,-0.21954148,9.741779,0.00076358096,0.0021380268,0.0001527162,-634.2,-236.94376,-609.9375,watch_2
26237405281347,0.10767702,-0.20997019,9.746565,0.00076358096,0.0021380268,0.0001527162,-633.6938,-236.45625,-609.6375,watch_2
26237398755253,0.10767702,-0.20997019,9.746565,0.00076358096,0.0021380268,0.0001527162,-633.6938,-236.45625,-609.6375,watch_2
26237393640149,0.10767702,-0.20997019,9.746565,0.00076358096,0.004581486,0.0001527162,-633.6938,-236.45625,-609.6375,watch_2
26237415281295,0.10767702,-0.20997019,9.746565,0.00076358096,0.004581486,0.0001527162,-633.3375,-234.58125,-609.6375,watch_2
26237425281243,0.10767702,-0.20997019,9.746565,0.00076358096,0.004581486,0.0001527162,-633.7688,-235.93126,-608.8125,watch_2
26237418377232,0.10289137,-0.21475583,9.756136,-0.0004581486,0.0009162972,0.0001527162,-633.7688,-235.93126,-608.8125,watch_2
26237413262128,0.10289137,-0.21475583,9.756136,-0.0004581486,0.0009162972,0.0001527162,-633.7688,-235.93126,-608.8125,watch_2
26237435281191,0.10289137,-0.21475583,9.756136,-0.0004581486,0.0009162972,0.0001527162,-633.6375,-235.725,-610.85626,watch_2
26237445281139,0.10289137,-0.21475583,9.756136,-0.0004581486,0.0009162972,0.0001527162,-633.67505,-235.21877,-608.5875,watch_2
26237432916139,0.10289137,-0.21475583,9.756136,-0.0004581486,-0.0015271619,-0.0010690134,-633.67505,-235.21877,-608.5875,watch_2
26237438031243,0.11246266,-0.23389842,9.741779,-0.0004581486,-0.0015271619,-0.0010690134,-633.67505,-235.21877,-608.5875,watch_2
26237455281086,0.11246266,-0.23389842,9.741779,-0.0004581486,-0.0015271619,-0.0010690134,-633.7688,-235.59377,-610.59375,watch_2
26237465281034,0.11246266,-0.23389842,9.741779,-0.0004581486,-0.0015271619,-0.0010690134,-633.9938,-236.49376,-609.65625,watch_2
26237457653222,0.12203395,-0.2434697,9.741779,-0.0004581486,-0.0015271619,0.0001527162,-633.9938,-236.49376,-609.65625,watch_2
26237452538118,0.12203395,-0.2434697,9.741779,-0.0004581486,-0.0015271619,0.0001527162,-633.9938,-236.49376,-609.65625,watch_2
26237475280982,0.12203395,-0.2434697,9.741779,-0.0004581486,-0.0015271619,0.0001527162,-633.0563,-234.99376,-607.95,watch_2
26237485280930,0.12203395,-0.2434697,9.741779,-0.0004581486,-0.0015271619,0.0001527162,-632.7,-235.8,-608.41876,watch_2
26237477307232,0.12203395,-0.23389842,9.746565,0.00076358096,0.0009162972,0.0001527162,-632.7,-235.8,-608.41876,watch_2
26237472192128,0.12203395,-0.23389842,9.746565,0.00076358096,0.0009162972,0.0001527162,-632.7,-235.8,-608.41876,watch_2
26237495280878,0.12203395,-0.23389842,9.746565,0.00076358096,0.0009162972,0.0001527162,-634.66876,-235.89375,-609.5063,watch_2
26237505280826,0.12203395,-0.23389842,9.746565,0.00076358096,0.0009162972,0.0001527162,-633.5813,-235.78127,-607.65,watch_2
26237496930253,0.11246266,-0.21954148,9.746565,-0.0004581486,0.0021380268,0.0001527162,-633.5813,-235.78127,-607.65,watch_2
26237491815149,0.11246266,-0.21954148,9.746565,-0.0004581486,0.0021380268,0.0001527162,-633.5813,-235.78127,-607.65,watch_2
26237515280774,0.11246266,-0.21954148,9.746565,-0.0004581486,0.0021380268,0.0001527162,-633.0188,-235.8,-609.91876,watch_2
26237525280722,0.11246266,-0.21954148,9.746565,-0.0004581486,0.0021380268,0.0001527162,-634.0125,-236.79376,-609.35626,watch_2
26237516583222,0.11246266,-0.21954148,9.746565,0.00076358096,0.0009162972,0.0001527162,-634.0125,-236.79376,-609.35626,watch_2
26237511468118,0.11246266,-0.21954148,9.746565,0.00076358096,0.0009162972,0.0001527162,-634.0125,-236.79376,-609.35626,watch_2
26237535280670,0.11246266,-0.21954148,9.746565,0.00076358096,0.0009162972,0.0001527162,-633.0563,-236.25002,-609.4313,watch_2
26237545280618,0.11246266,-0.21475583,9.746565,0.00076358096,0.0009162972,0.0001527162,-633.73126,-238.65001,-606.5063,watch_2
26237536206243,0.11246266,-0.21475583,9.746565,0.00076358096,0.0009162972,0.0001527162,-633.73126,-238.65001,-606.5063,watch_2
26237531091139,0.11246266,-0.21475583,9.746565,-0.0004581486,-0.0003054324,0.0001527162,-633.73126,-238.65001,-606.5063,watch_2
26237555280566,0.11246266,-0.21475583,9.746565,-0.0004581486,-0.0003054324,0.0001527162,-636.1875,-235.74376,-611.73755,watch_2
26237565280514,0.11246266,-0.21475583,9.746565,-0.0004581486,-0.0003054324,0.0001527162,-632.9625,-236.64375,-609.97504,watch_2
26237550714159,0.10289137,-0.22432712,9.746565,-0.0004581486,-0.0003054324,-0.0010690134,-632.9625,-236.64375,-609.97504,watch_2
26237555829264,0.10289137,-0.22432712,9.746565,-0.0004581486,-0.0003054324,-0.0010690134,-632.9625,-236.64375,-609.97504,watch_2
26237575280461,0.10289137,-0.22432712,9.746565,-0.0004581486,-0.0003054324,-0.0010690134,-632.25,-237.00002,-609.1313,watch_2
26237585280409,0.10289137,-0.22432712,9.746565,-0.0004581486,-0.0003054324,-0.0010690134,-632.5688,-237.01875,-609.8813,watch_2
26237570367128,0.12203395,-0.22911277,9.75135,-0.0004581486,-0.0015271619,0.0001527162,-632.5688,-237.01875,-609.8813,watch_2
26237575482232,0.12203395,-0.22911277,9.75135,-0.0004581486,-0.0015271619,0.0001527162,-632.5688,-237.01875,-609.8813,watch_2
26237595280357,0.12203395,-0.22911277,9.75135,-0.0004581486,-0.0015271619,0.0001527162,-634.0688,-235.96877,-608.85004,watch_2
26237595105253,0.09810573,-0.22911277,9.746565,-0.0004581486,0.0009162972,0.0001527162,-634.0688,-235.96877,-608.85004,watch_2
26237589990149,0.09810573,-0.22911277,9.746565,-0.0004581486,0.0009162972,0.0001527162,-634.0688,-235.96877,-608.85004,watch_2
26237605280305,0.09810573,-0.22911277,9.746565,-0.0004581486,0.0009162972,0.0001527162,-633.2438,-236.40001,-609.5813,watch_2
26237615280253,0.09810573,-0.22911277,9.746565,-0.0004581486,0.0009162972,0.0001527162,-634.5,-235.725,-608.92505,watch_2
26237609643118,0.10289137,-0.21954148,9.736994,-0.0004581486,0.0021380268,0.0001527162,-633.97504,-234.93752,-610.10626,watch_2
26237625280201,0.10289137,-0.21954148,9.736994,-0.0004581486,0.0021380268,0.0001527162,-633.97504,-234.93752,-610.10626,watch_2
26237614758222,0.10289137,-0.21954148,9.736994,-0.0004581486,0.0021380268,0.0001527162,-634.5,-234.93752,-610.10626,watch_2
26237635280149,0.10289137,-0.21954148,9.736994,-0.0004581486,0.0021380268,0.0001527162,-633.16876,-235.66876,-610.0875,watch_2
26237629266139,0.10289137,-0.21954148,9.746565,-0.0016798781,0.0033597562,0.0001527162,-633.16876,-235.66876,-610.0875,watch_2
26237634381243,0.10289137,-0.21954148,9.746565,-0.0016798781,0.0033597562,0.0001527162,-633.16876,-235.66876,-610.0875,watch_2
26237645280097,0.10289137,-0.21954148,9.746565,-0.0016798781,0.0033597562,0.0001527162,-632.3063,-236.475,-607.575,watch_2
26237655280045,0.10289137,-0.21954148,9.746565,-0.0016798781,0.0033597562,0.0001527162,-635.41876,-235.65001,-611.36255,watch_2
26237648889159,0.1268196,-0.21475583,9.746565,-0.0004581486,-0.0003054324,0.0001527162,-635.41876,-235.65001,-611.36255,watch_2
26237654004264,0.1268196,-0.21475583,9.746565,-0.0004581486,-0.0003054324,0.0001527162,-634.40625,-236.11876,-610.1813,watch_2
26237665279993,0.1268196,-0.21475583,9.746565,-0.0004581486,-0.0003054324,0.0001527162,-634.40625,-236.11876,-610.1813,watch_2
26237675279941,0.1268196,-0.21475583,9.746565,-0.0004581486,-0.0003054324,0.0001527162,-635.73755,-236.34377,-608.1375,watch_2
26237668542128,0.1268196,-0.23868406,9.741779,-0.0016798781,0.0009162972,0.0001527162,-635.73755,-236.34377,-608.1375,watch_2
26237673657232,0.1268196,-0.23868406,9.741779,-0.0016798781,0.0009162972,0.0001527162,-635.73755,-236.34377,-608.1375,watch_2
26237685279889,0.1268196,-0.23868406,9.741779,-0.0016798781,0.0009162972,0.0001527162,-632.9438,-238.25626,-607.48126,watch_2
26237695279836,0.1268196,-0.23868406,9.741779,-0.0016798781,0.0009162972,0.0001527162,-630.73126,-238.70625,-605.73755,watch_2
26237693280253,0.12203395,-0.23389842,9.693923,0.00076358096,0.004581486,0.0001527162,-632.775,-236.51251,-607.9313,watch_2
26237705279784,0.12203395,-0.23389842,9.693923,0.00076358096,0.004581486,0.0001527162,-632.775,-236.51251,-607.9313,watch_2
26237688165149,0.12203395,-0.23389842,9.693923,0.00076358096,0.004581486,0.0001527162,-632.775,-236.51251,-607.9313,watch_2
26237715279732,0.12203395,-0.23389842,9.693923,0.00076358096,0.004581486,0.0001527162,-633.5625,-236.90627,-607.96875,watch_2
26237712933222,0.10767702,-0.21475583,9.808778,0.006872229,0.0009162972,0.0013744457,-633.5625,-236.90627,-607.96875,watch_2
26237707818118,0.10767702,-0.21475583,9.808778,0.006872229,0.0009162972,0.0013744457,-633.5625,-236.90627,-607.96875,watch_2
26237725279680,0.10767702,-0.21475583,9.808778,0.006872229,0.0009162972,0.0013744457,-633.09375,-236.85,-607.35004,watch_2
26237735279628,0.10767702,-0.21475583,9.808778,0.006872229,0.0009162972,0.0013744457,-633.22504,-236.7375,-607.0875,watch_2
26237732556243,0.13160525,-0.23868406,9.689137,-0.0065667965,-0.008857539,-0.0010690134,-630.65625,-236.06252,-609.7688,watch_2
26237727441139,0.13160525,-0.23868406,9.689137,-0.0065667965,-0.008857539,-0.0010690134,-630.65625,-236.06252,-609.7688,watch_2
26237745279576,0.13160525,-0.23868406,9.689137,-0.0065667965,-0.008857539,-0.0010690134,-630.65625,-236.06252,-609.7688,watch_2
26237755279524,0.13160525,-0.23868406,9.689137,-0.0065667965,-0.008857539,-0.0010690134,-633.7125,-236.75626,-609.0188,watch_2
26237747064159,0.11724831,-0.22432712,9.775279,0.00320704,0.014355322,0.0001527162,-633.7125,-236.75626,-609.0188,watch_2
26237752179264,0.11724831,-0.22432712,9.775279,0.00320704,0.014355322,0.0001527162,-633.7125,-236.75626,-609.0188,watch_2
26237765279472,0.11724831,-0.22432712,9.775279,0.00320704,0.014355322,0.0001527162,-633.7125,-236.75626,-609.0188,watch_2
26237775279420,0.11724831,-0.22432712,9.775279,0.00320704,0.014355322,0.0001527162,-632.73755,-236.23126,-607.65,watch_2
26237771832232,0.09810573,-0.22432712,9.7609215,0.00320704,0.014355322,0.0001527162,-632.73755,-236.23126,-607.65,watch_2
26237766717128,0.09810573,-0.22432712,9.7609215,0.00076358096,0.011911863,0.0001527162,-632.73755,-236.23126,-607.65,watch_2
26237785279368,0.09810573,-0.22432712,9.7609215,0.00076358096,0.011911863,0.0001527162,-632.7,-235.78127,-608.71875,watch_2
26237795279316,0.09810573,-0.22432712,9.7609215,0.00076358096,0.011911863,0.0001527162,-632.15625,-236.2875,-608.15625,watch_2
26237791455253,0.09810573,-0.21954148,9.736994,0.00076358096,0.011911863,0.0001527162,-632.15625,-236.2875,-608.15625,watch_2
26237805279264,0.09810573,-0.21954148,9.736994,0.00076358096,-0.010079269,0.0001527162,-631.9313,-237.3,-606.30005,watch_2
26237786340149,0.09810573,-0.21954148,9.736994,0.00076358096,-0.010079269,0.0001527162,-631.9313,-237.3,-606.30005,watch_2
26237815279211,0.09810573,-0.21954148,9.736994,0.00076358096,-0.010079269,0.0001527162,-632.55005,-238.46251,-608.4375,watch_2
26237811108222,0.11724831,-0.20039889,9.765707,0.00076358096,-0.0051923506,0.0001527162,-632.55005,-238.46251,-608.4375,watch_2
26237805993118,0.11724831,-0.20039889,9.765707,0.00076358096,-0.0051923506,0.0001527162,-632.55005,-238.46251,-608.4375,watch_2
26237825279159,0.11724831,-0.20039889,9.765707,0.00076358096,-0.0051923506,0.0001527162,-633.16876,-237.26251,-609.0563,watch_2
26237835279107,0.11724831,-0.20039889,9.765707,0.00076358096,-0.0051923506,0.0001527162,-635.34375,-235.25626,-609.65625,watch_2
26237830731243,0.10767702,-0.22432712,9.727423,0.00076358096,-0.0051923506,0.0001527162,-635.34375,-235.25626,-609.65625,watch_2
26237825616139,0.10767702,-0.22432712,9.727423,-0.0016798781,0.011911863,0.0001527162,-635.34375,-235.25626,-609.65625,watch_2
26237845279055,0.10767702,-0.22432712,9.727423,-0.0016798781,0.011911863,0.0001527162,-633.46875,-235.89375,-608.79376,watch_2
26237855279003,0.10767702,-0.22432712,9.727423,-0.0016798781,0.011911863,0.0001527162,-634.0125,-236.475,-610.8375,watch_2
26237850354264,0.09810573,-0.21954148,9.756136,-0.0016798781,0.011911863,0.0001527162,-634.0125,-236.475,-610.8375,watch_2
26237845239159,0.09810573,-0.21954148,9.756136,0.00076358096,0.0058032153,0.0001527162,-634.8375,-236.04376,-609.65625,watch_2
26237865278951,0.09810573,-0.21954148,9.756136,0.00076358096,0.0058032153,0.0001527162,-634.8375,-236.04376,-609.65625,watch_2
26237875278899,0.09810573,-0.21954148,9.756136,0.00076358096,0.0058032153,0.0001527162,-633.6375,-236.02501,-609.67505,watch_2
26237864892128,0.11246266,-0.2434697,9.722636,-0.005345067,-0.0015271619,0.0001527162,-633.6375,-236.02501,-609.67505,watch_2
26237870007232,0.11246266,-0.2434697,9.722636,-0.005345067,-0.0015271619,0.0001527162,-633.6375,-236.02501,-609.67505,watch_2
26237885278847,0.11246266,-0.2434697,9.722636,-0.005345067,-0.0015271619,0.0001527162,-632.1938,-236.25002,-610.2,watch_2
26237895278795,0.11246266,-0.2434697,9.722636,-0.005345067,-0.0015271619,0.0001527162,-634.65,-237.01875,-609.54376,watch_2
26237889630253,0.11246266,-0.22432712,9.75135,-0.005345067,-0.0015271619,0.0001527162,-634.65,-237.01875,-609.54376,watch_2
26237884515149,0.11246266,-0.22432712,9.75135,0.00076358096,0.004581486,0.0001527162,-634.65,-237.01875,-609.54376,watch_2
26237905278743,0.11246266,-0.22432712,9.75135,0.00076358096,0.004581486,0.0001527162,-633.46875,-235.87502,-609.525,watch_2
26237915278691,0.11246266,-0.22432712,9.75135,0.00076358096,0.004581486,0.0001527162,-633.86255,-235.51875,-608.4375,watch_2
26237909283222,0.10289137,-0.22911277,9.741779,-0.0004581486,0.008246674,0.0001527162,-633.86255,-235.51875,-608.4375,watch_2
26237904168118,0.10289137,-0.22911277,9.741779,-0.0004581486,0.008246674,0.0001527162,-633.86255,-235.51875,-608.4375,watch_2
26237925278639,0.10289137,-0.22911277,9.741779,-0.0004581486,0.008246674,0.0001527162,-635.2688,-235.81876,-609.73126,watch_2
26237935278586,0.10289137,-0.22911277,9.741779,-0.0004581486,0.008246674,0.0001527162,-634.21875,-234.39375,-610.3313,watch_2
26237928906243,0.10289137,-0.21954148,9.7609215,0.0019853106,0.0021380268,0.0001527162,-634.21875,-234.39375,-610.3313,watch_2
26237923791139,0.10289137,-0.21954148,9.7609215,0.0019853106,0.0021380268,0.0001527162,-634.21875,-234.39375,-610.3313,watch_2
26237945278534,0.10289137,-0.21954148,9.7609215,0.0019853106,0.0021380268,0.0001527162,-634.5,-235.725,-609.35626,watch_2
26237955278482,0.10289137,-0.21954148,9.7609215,0.0019853106,0.0021380268,0.0001527162,-633.22504,-236.40001,-609.30005,watch_2
26237948529264,0.09810573,-0.21475583,9.741779,0.0044287695,0.0021380268,0.0001527162,-633.22504,-236.40001,-609.30005,watch_2
26237943414159,0.09810573,-0.21475583,9.741779,0.0044287695,0.0021380268,0.0001527162,-633.22504,-236.40001,-609.30005,watch_2
26237965278430,0.09810573,-0.21475583,9.741779,0.0044287695,0.0021380268,0.0001527162,-634.16254,-236.6625,-609.525,watch_2
26237975278378,0.09810573,-0.21475583,9.741779,0.0044287695,0.0021380268,0.0001527162,-634.5188,-235.70625,-610.0875,watch_2
26237968182232,-0.22731815,-0.20518455,9.775279,0.0044287695,0.0021380268,0.0001527162,-634.5188,-235.70625,-610.0875,watch_2
26237963067128,-0.22731815,-0.20518455,9.775279,-0.004123337,-0.06383537,-0.008399391,-634.5188,-235.70625,-610.0875,watch_2
26237985278326,-0.22731815,-0.20518455,9.775279,-0.004123337,-0.06383537,-0.008399391,-634.0125,-235.21877,-610.0875,watch_2
26237995278274,-0.22731815,-0.20518455,9.775279,-0.004123337,-0.06383537,-0.008399391,-632.8688,-235.95001,-608.5688,watch_2
26237987805253,-0.28953153,-0.27218357,9.45464,-0.004123337,-0.06383537,-0.008399391,-632.8688,-235.95001,-608.5688,watch_2
26237982690149,-0.28953153,-0.27218357,9.45464,0.048411034,-0.67470014,-0.0707076,-632.8688,-235.95001,-608.5688,watch_2
26238007458222,0.19860429,-0.066400826,9.990633,0.048411034,-0.67470014,-0.0707076,-632.8688,-235.95001,-608.5688,watch_2
26238005278222,0.19860429,-0.066400826,9.990633,0.048411034,-0.67470014,-0.0707076,-633.7125,-235.18126,-610.05005,watch_2
26238002343118,0.19860429,-0.066400826,9.990633,0.18157956,-0.3265072,-0.12935062,-633.7125,-235.18126,-610.05005,watch_2
26238025278118,0.19860429,-0.066400826,9.990633,0.18157956,-0.3265072,-0.12935062,-634.8938,-236.45625,-610.35004,watch_2
26238015278170,0.19860429,-0.066400826,9.990633,0.18157956,-0.3265072,-0.12935062,-634.8938,-236.45625,-610.35004,watch_2
26238021966139,0.19860429,-0.066400826,9.990633,0.006872229,0.014355322,-0.03527744,-632.9625,-236.64375,-609.525,watch_2
26238035278066,0.19860429,-0.066400826,9.990633,0.006872229,0.014355322,-0.03527744,-632.9625,-236.64375,-609.525,watch_2
26238045278014,1.2083755,-0.21475583,9.765707,0.006872229,0.014355322,-0.03527744,-634.5563,-234.88126,-609.30005,watch_2
26238027081243,1.2083755,-0.21475583,9.765707,0.006872229,0.014355322,-0.03527744,-634.5563,-234.88126,-609.30005,watch_2
26238046734264,0.3469593,-0.17168503,9.7704935,0.006872229,0.014355322,-0.03527744,-633.8813,-236.925,-608.73755,watch_2
26238055277961,0.3469593,-0.17168503,9.7704935,0.006872229,0.014355322,-0.03527744,-633.8813,-236.925,-608.73755,watch_2
26238065277909,0.3469593,-0.17168503,9.7704935,-0.043218683,-0.024740024,-0.020616686,-634.98755,-237.50626,-608.5125,watch_2
26238041619159,0.3469593,-0.17168503,9.7704935,-0.043218683,-0.024740024,-0.020616686,-633.8813,-236.925,-608.73755,watch_2
26238075277857,0.3469593,-0.19561325,9.732208,-0.043218683,-0.024740024,-0.020616686,-633.5063,-236.32501,-608.025,watch_2
26238066357232,0.3469593,-0.19561325,9.732208,-0.043218683,-0.024740024,-0.020616686,-633.5063,-236.32501,-608.025,watch_2
26238061242128,0.3469593,-0.19561325,9.732208,-0.05177079,-0.03695732,-0.018173227,-633.5063,-236.32501,-608.025,watch_2
26238085277805,0.3469593,-0.19561325,9.732208,-0.05177079,-0.03695732,-0.018173227,-632.8125,-235.36876,-609.35626,watch_2
26238095277753,0.3469593,-0.19561325,9.732208,-0.05177079,-0.03695732,-0.018173227,-632.60626,-237.61876,-608.3813,watch_2
26238085980253,0.36610186,-0.19082761,9.7609215,-0.032223117,-0.03329213,-0.002290743,-632.60626,-237.61876,-608.3813,watch_2
26238080865149,0.36610186,-0.19082761,9.7609215,-0.032223117,-0.03329213,-0.002290743,-632.60626,-237.61876,-608.3813,watch_2
26238105277701,0.36610186,-0.19082761,9.7609215,-0.032223117,-0.03329213,-0.002290743,-635.3813,-237.13126,-608.15625,watch_2
26238115277649,0.25124636,-0.16211374,9.646067,-0.032223117,-0.03329213,-0.002290743,-633.2438,-236.71877,-608.53125,watch_2
26238105633222,0.25124636,-0.16211374,9.646067,-0.041996952,0.0009162972,0.031917684,-633.2438,-236.71877,-608.53125,watch_2
26238100518118,0.25124636,-0.16211374,9.646067,-0.041996952,0.0009162972,0.031917684,-633.2438,-236.71877,-608.53125,watch_2
26238125277597,0.25124636,-0.16211374,9.646067,-0.041996952,0.0009162972,0.031917684,-634.6875,-237.45001,-609.2063,watch_2
26238135277545,0.25124636,-0.16211374,9.646067,-0.041996952,0.0009162972,0.031917684,-635.625,-237.71251,-609.45,watch_2
26238125256243,0.36131623,-0.26739794,9.70828,-0.041996952,0.0009162972,0.031917684,-635.625,-237.71251,-609.45,watch_2
26238120141139,0.36131623,-0.26739794,9.70828,0.056963142,0.033902995,0.064904384,-635.625,-237.71251,-609.45,watch_2
26238145277493,0.36131623,-0.26739794,9.70828,0.056963142,0.033902995,0.064904384,-634.7438,-236.60626,-609.45,watch_2
26238139794159,0.3182454,-0.18125631,9.81835,0.05574141,0.009468404,0.024587307,-634.7438,-236.60626,-609.45,watch_2
26238144909264,0.3182454,-0.18125631,9.81835,0.05574141,0.009468404,0.024587307,-634.7438,-236.60626,-609.45,watch_2
26238155277441,0.3182454,-0.18125631,9.81835,0.05574141,0.009468404,0.024587307,-635.92505,-236.64375,-608.2688,watch_2
26238165277389,0.3182454,-0.18125631,9.81835,0.05574141,0.009468404,0.024587307,-634.16254,-236.6625,-609.525,watch_2
26238164532232,0.33260235,-0.19082761,9.736994,0.05574141,0.009468404,0.024587307,-634.16254,-236.6625,-609.525,watch_2
26238159417128,0.33260235,-0.19082761,9.736994,-0.0029016077,0.01924224,-0.007177661,-634.16254,-236.6625,-609.525,watch_2
26238175277336,0.33260235,-0.19082761,9.736994,-0.0029016077,0.01924224,-0.007177661,-636.22504,-236.3625,-609.9375,watch_2
26238185277284,0.33260235,-0.19082761,9.736994,-0.0029016077,0.01924224,-0.007177661,-636.22504,-236.3625,-609.9375,watch_2
26238184155253,0.30867413,-0.2434697,9.588638,0.07651082,0.041233372,0.003817905,-636.22504,-236.3625,-609.9375,watch_2
26238179040149,0.30867413,-0.2434697,9.588638,0.07651082,0.041233372,0.003817905,-636.22504,-236.3625,-609.9375,watch_2
26238195277232,0.30867413,-0.2434697,9.588638,0.07651082,0.041233372,0.003817905,-633.5625,-236.88751,-608.7,watch_2
26238205277180,0.30867413,-0.2434697,9.588638,0.07651082,0.041233372,0.003817905,-634.40625,-236.11876,-610.48126,watch_2
26238203808222,0.3182454,-0.09032906,9.81835,0.07651082,0.041233372,0.003817905,-634.40625,-236.11876,-610.48126,watch_2
26238215277128,0.3182454,-0.09032906,9.81835,0.18890993,-0.017409647,0.024587307,-634.7063,-236.175,-609.48755,watch_2
26238198693118,0.3182454,-0.09032906,9.81835,0.18890993,-0.017409647,0.024587307,-634.8375,-237.63751,-608.34375,watch_2
26238225277076,0.3182454,-0.09032906,9.81835,0.18890993,-0.017409647,0.024587307,-634.7063,-236.175,-609.48755,watch_2
26238223431243,0.3278167,-0.037686955,9.885348,0.10583232,-0.038179047,0.034361143,-634.7063,-236.175,-609.48755,watch_2
26238218316139,0.3278167,-0.037686955,9.885348,0.10583232,-0.038179047,0.034361143,-634.7063,-236.175,-609.48755,watch_2
26238235277024,0.3278167,-0.037686955,9.885348,0.10583232,-0.038179047,0.034361143,-635.60626,-237.73126,-608.41876,watch_2
26238245276972,0.3278167,-0.037686955,9.885348,0.10583232,-0.038179047,0.034361143,-636.11255,-235.35,-610.0125,watch_2
26238237969159,0.3278167,-0.11425728,9.765707,-0.043218683,0.009468404,0.034361143,-634.0688,-237.225,-609.0188,watch_2
26238255276920,0.3278167,-0.11425728,9.765707,-0.043218683,0.009468404,0.034361143,-634.0688,-237.225,-609.0188,watch_2
26238265276868,0.3278167,-0.11425728,9.765707,-0.043218683,0.009468404,0.034361143,-634.0688,-237.225,-609.0188,watch_2
26238243084264,0.3278167,-0.11425728,9.765707,-0.043218683,0.009468404,0.034361143,-634.0688,-237.225,-609.0188,watch_2
26238262707232,0.069391854,-0.018544376,9.6173525,-0.028557928,0.013133593,0.058795735,-632.0063,-236.11876,-609.03754,watch_2
26238275276816,0.2847459,-0.08075777,9.813564,-0.028557928,0.013133593,0.058795735,-632.1375,-236.32501,-606.9938,watch_2
26238295276711,0.2847459,-0.08075777,9.813564,0.07651082,-0.03695732,0.053908817,-630.54376,-237.31876,-603.525,watch_2
26238277215149,0.2847459,-0.08075777,9.813564,0.07651082,-0.03695732,0.053908817,-630.54376,-237.31876,-603.525,watch_2
26238257592128,0.2847459,-0.08075777,9.813564,0.07651082,-0.03695732,0.053908817,-630.54376,-237.31876,-603.525,watch_2
26238285276764,0.2847459,-0.08075777,9.813564,0.07651082,-0.03695732,0.053908817,-632.41876,-238.74376,-607.5188,watch_2
26238282330253,0.2847459,-0.08075777,9.813564,0.07651082,-0.03695732,0.053908817,-632.1375,-236.32501,-606.9938,watch_2
26238305276659,0.2847459,-0.08075777,9.813564,0.07651082,-0.03695732,0.053908817,-630.54376,-237.31876,-603.525,watch_2
26238301983222,0.3278167,-0.123828575,9.736994,0.027641632,-0.03451386,0.05146536,-630.54376,-237.31876,-603.525,watch_2
26238296868118,0.3278167,-0.123828575,9.736994,0.027641632,-0.03451386,0.05146536,-630.54376,-237.31876,-603.525,watch_2
26238315276607,0.3278167,-0.123828575,9.736994,0.027641632,-0.03451386,0.05146536,-630.5813,-238.85626,-604.8188,watch_2
26238325276555,0.3278167,-0.123828575,9.736994,0.027641632,-0.03451386,0.05146536,-631.48126,-240.4125,-603.46875,watch_2
26238321606243,0.41874397,-0.18604197,9.732208,0.027641632,-0.03451386,0.05146536,-631.48126,-240.4125,-603.46875,watch_2
26238316491139,0.41874397,-0.18604197,9.732208,0.025198173,-0.021074835,0.03924806,-631.48126,-240.4125,-603.46875,watch_2
26238335276503,0.41874397,-0.18604197,9.732208,0.025198173,-0.021074835,0.03924806,-633.78754,-239.06252,-607.5,watch_2
26238345276451,0.41874397,-0.18604197,9.732208,0.025198173,-0.021074835,0.03924806,-632.0625,-235.59377,-607.5,watch_2
26238341259264,0.39481574,-0.1477568,9.75135,0.025198173,-0.021074835,0.03924806,-632.0625,-235.59377,-607.5,watch_2
26238336144159,0.39481574,-0.1477568,9.75135,0.03497201,-0.014966187,0.020922119,-632.0625,-235.59377,-607.5,watch_2
26238355276399,0.39481574,-0.1477568,9.75135,0.03497201,-0.014966187,0.020922119,-633.73126,-237.225,-607.53754,watch_2
26238365276347,0.39481574,-0.1477568,9.75135,0.03497201,-0.014966187,0.020922119,-633.9,-237.39375,-607.3875,watch_2
26238360882232,0.4331009,-0.15254244,9.713065,0.0386372,-0.0003054324,0.012370012,-633.9,-237.39375,-607.3875,watch_2
26238355767128,0.4331009,-0.15254244,9.713065,0.0386372,-0.0003054324,0.012370012,-633.9,-237.39375,-607.3875,watch_2
26238375276295,0.4331009,-0.15254244,9.713065,0.0386372,-0.0003054324,0.012370012,-634.6313,-237.0375,-608.5125,watch_2
26238385276243,0.4331009,-0.15254244,9.713065,0.0386372,-0.0003054324,0.012370012,-634.6313,-235.6125,-608.8125,watch_2
26238380505253,0.2847459,-0.071186475,9.827921,0.03619374,0.042455103,0.008704823,-634.6313,-235.6125,-608.8125,watch_2
26238375390149,0.2847459,-0.071186475,9.827921,0.03619374,0.042455103,0.008704823,-634.6313,-235.6125,-608.8125,watch_2
26238395276191,0.2847459,-0.071186475,9.827921,0.03619374,0.042455103,0.008704823,-634.8375,-236.06252,-608.92505,watch_2
26238405276139,0.2847459,-0.071186475,9.827921,0.03619374,0.042455103,0.008704823,-634.35004,-235.85626,-608.7563,watch_2
26238400158222,0.27038896,-0.037686955,9.732208,0.0129808765,-0.025961753,0.008704823,-634.35004,-235.85626,-608.7563,watch_2
26238395043118,0.27038896,-0.037686955,9.732208,0.0129808765,-0.025961753,0.008704823,-634.35004,-235.85626,-608.7563,watch_2
26238415276086,0.27038896,-0.037686955,9.732208,0.0129808765,-0.025961753,0.008704823,-634.1438,-236.3625,-610.275,watch_2
26238425276034,0.27038896,-0.037686955,9.732208,0.0129808765,-0.025961753,0.008704823,-634.575,-237.8625,-609.0188,watch_2
26238419781243,0.42831525,-0.10468599,9.746565,-0.0004581486,-0.0003054324,0.003817905,-634.575,-237.8625,-609.0188,watch_2
26238414666139,0.42831525,-0.10468599,9.746565,-0.0004581486,-0.0003054324,0.003817905,-634.575,-237.8625,-609.0188,watch_2
26238435275982,0.42831525,-0.10468599,9.746565,-0.0004581486,-0.0003054324,0.003817905,-634.575,-237.8625,-609.0188,watch_2
26238445275930,0.42831525,-0.10468599,9.746565,-0.0004581486,-0.0003054324,0.003817905,-634.66876,-235.89375,-609.22504,watch_2
26238439434264,0.32303107,-0.119042926,9.713065,-0.013897174,0.04612029,0.008704823,-634.66876,-235.89375,-609.22504,watch_2
26238434319159,0.32303107,-0.119042926,9.713065,-0.013897174,0.04612029,0.008704823,-634.66876,-235.89375,-609.22504,watch_2
26238455275878,0.32303107,-0.119042926,9.713065,-0.013897174,0.04612029,0.008704823,-635.6438,-237.65627,-611.47504,watch_2
26238465275826,0.32303107,-0.119042926,9.713065,-0.013897174,0.04612029,0.008704823,-635.34375,-236.53127,-609.375,watch_2
26238459057232,0.44745782,-0.17647067,9.722636,0.014202606,-0.0015271619,0.0050396346,-635.34375,-236.53127,-609.375,watch_2
26238453942128,0.44745782,-0.17647067,9.722636,0.014202606,-0.0015271619,0.0050396346,-635.34375,-236.53127,-609.375,watch_2
26238475275774,0.44745782,-0.17647067,9.722636,0.014202606,-0.0015271619,0.0050396346,-633.91876,-237.35626,-608.7,watch_2
26238485275722,0.44745782,-0.17647067,9.722636,0.014202606,-0.0015271619,0.0050396346,-634.78125,-236.88751,-609.1313,watch_2
26238478680253,0.17467605,0.019740786,9.741779,0.028863361,-0.0051923506,0.058795735,-634.78125,-236.88751,-609.1313,watch_2
26238473565149,0.17467605,0.019740786,9.741779,0.028863361,-0.0051923506,0.058795735,-634.78125,-236.88751,-609.1313,watch_2
26238495275670,0.17467605,0.019740786,9.741779,0.028863361,-0.0051923506,0.058795735,-634.78125,-236.56876,-611.1938,watch_2
26238505275618,0.17467605,0.019740786,9.741779,0.028863361,-0.0051923506,0.058795735,-634.125,-236.40001,-608.8125,watch_2
26238498333222,0.3278167,-0.0424726,9.7704935,0.028863361,-0.0051923506,0.058795735,-634.125,-236.40001,-608.8125,watch_2
26238493218118,0.3278167,-0.0424726,9.7704935,0.019089524,-0.016187917,0.01970039,-634.125,-236.40001,-608.8125,watch_2
26238515275566,0.3278167,-0.0424726,9.7704935,0.019089524,-0.016187917,0.01970039,-636.1875,-236.08125,-609.9563,watch_2
26238525275514,0.3278167,-0.0424726,9.7704935,0.019089524,-0.016187917,0.01970039,-633.3938,-237.675,-610.2,watch_2
26238517956243,0.33260235,-0.066400826,9.736994,0.006872229,-0.008857539,-0.002290743,-633.3938,-237.675,-610.2,watch_2
26238512841139,0.33260235,-0.066400826,9.736994,0.006872229,-0.008857539,-0.002290743,-633.3938,-237.675,-610.2,watch_2
26238535275461,0.33260235,-0.066400826,9.736994,0.006872229,-0.008857539,-0.002290743,-635.90625,-236.175,-610.2,watch_2
26238545275409,0.33260235,-0.066400826,9.736994,0.006872229,-0.008857539,-0.002290743,-635.04376,-236.6625,-608.7563,watch_2
26238537610253,0.36131623,-0.066400826,9.756136,0.006872229,-0.008857539,-0.002290743,-635.04376,-236.6625,-608.7563,watch_2
26238532495149,0.36131623,-0.066400826,9.756136,0.014202606,-0.00641408,-0.0010690134,-635.04376,-236.6625,-608.7563,watch_2
26238555275357,0.36131623,-0.066400826,9.756136,0.014202606,-0.00641408,-0.0010690134,-634.3875,-235.83751,-610.2,watch_2
26238565275305,0.36131623,-0.066400826,9.756136,0.014202606,-0.00641408,-0.0010690134,-634.1438,-236.34377,-611.0063,watch_2
26238557232232,0.31345975,-0.066400826,9.727423,0.014202606,-0.00641408,-0.0010690134,-634.1438,-236.34377,-611.0063,watch_2
26238552117128,0.31345975,-0.066400826,9.727423,0.00320704,0.026572619,0.003817905,-634.1438,-236.34377,-611.0063,watch_2
26238575275253,0.31345975,-0.066400826,9.727423,0.00320704,0.026572619,0.003817905,-636.30005,-236.77501,-611.0625,watch_2
26238576855253,0.31345975,-0.0424726,9.727423,0.00320704,0.026572619,0.003817905,-634.7625,-236.60626,-609.75,watch_2
26238571740149,0.31345975,-0.0424726,9.727423,0.017867794,0.0021380268,0.0025961753,-634.7625,-236.60626,-609.75,watch_2
26238585275201,0.31345975,-0.0424726,9.727423,0.017867794,0.0021380268,0.0025961753,-634.7625,-236.60626,-609.75,watch_2
26238595275149,0.31345975,-0.0424726,9.727423,0.017867794,0.0021380268,0.0025961753,-634.05005,-237.24376,-608.5875,watch_2
26238591393118,0.32303107,-0.061615184,9.746565,0.022754714,-0.022296565,0.0013744457,-633.86255,-236.62502,-609.48755,watch_2
26238605275097,0.32303107,-0.061615184,9.746565,0.022754714,-0.022296565,0.0013744457,-633.86255,-236.62502,-609.48755,watch_2
26238596508222,0.32303107,-0.061615184,9.746565,0.022754714,-0.022296565,0.0013744457,-633.86255,-236.62502,-609.48755,watch_2
26238615275045,0.32303107,-0.061615184,9.746565,0.022754714,-0.022296565,0.0013744457,-635.47504,-237.84377,-608.53125,watch_2
26238616131243,0.30867413,-0.061615184,9.736994,0.016646065,-0.041844238,-0.002290743,-633.16876,-235.66876,-610.0875,watch_2
26238611016139,0.30867413,-0.061615184,9.736994,0.016646065,-0.041844238,-0.002290743,-633.16876,-235.66876,-610.0875,watch_2
26238625274993,0.30867413,-0.061615184,9.736994,0.022754714,-0.022296565,0.0013744457,-633.16876,-235.66876,-610.0875,watch_2
26238635274941,0.30867413,-0.061615184,9.736994,0.016646065,-0.041844238,-0.002290743,-634.65,-235.57501,-610.5563,watch_2
26238645274889,0.3469593,-0.047258247,9.741779,0.016646065,-0.041844238,-0.002290743,-633.9375,-237.33751,-609.86255,watch_2
26238635785253,0.3469593,-0.047258247,9.741779,0.016646065,-0.041844238,-0.002290743,-633.9375,-237.33751,-609.86255,watch_2
26238655274836,0.3469593,-0.047258247,9.741779,0.025198173,-0.07238748,-0.00962112,-635.5688,-238.5375,-609.5063,watch_2
26238630670149,0.3469593,-0.047258247,9.741779,0.025198173,-0.07238748,-0.00962112,-635.5688,-238.5375,-609.5063,watch_2
26238665274784,0.3469593,-0.047258247,9.741779,0.025198173,-0.07238748,-0.00962112,-636.28125,-236.77501,-610.3313,watch_2
26238655407232,0.3804588,-0.0041874396,9.741779,0.031306818,-0.050396346,-0.00962112,-636.28125,-236.77501,-610.3313,watch_2
26238650292128,0.3804588,-0.0041874396,9.741779,0.031306818,-0.050396346,-0.00962112,-636.28125,-236.77501,-610.3313,watch_2
26238675274732,0.3804588,-0.0041874396,9.741779,0.031306818,-0.050396346,-0.00962112,-635.15625,-237.33751,-610.875,watch_2
26238675061243,0.3804588,-0.028115666,9.722636,0.021532983,-0.018631376,-0.00962112,-633.60004,-236.86876,-610.16254,watch_2
26238669946139,0.3804588,-0.028115666,9.722636,0.021532983,-0.018631376,-0.00962112,-633.60004,-236.86876,-610.16254,watch_2
26238685274680,0.3804588,-0.028115666,9.722636,0.021532983,-0.018631376,-0.00962112,-633.60004,-236.86876,-610.16254,watch_2
26238695274628,0.3804588,-0.028115666,9.722636,0.021532983,-0.018631376,-0.00962112,-635.0813,-236.925,-609.75,watch_2
26238705274576,0.3900301,-0.037686955,9.756136,0.021532983,-0.018631376,-0.00962112,-634.5563,-237.56252,-609.6188,watch_2
26238694683222,0.3900301,-0.037686955,9.756136,0.021532983,-0.018631376,-0.00962112,-634.5563,-237.56252,-609.6188,watch_2
26238689568118,0.3900301,-0.037686955,9.756136,0.017867794,-0.008857539,-0.00962112,-634.5563,-237.56252,-609.6188,watch_2
26238715274524,0.3900301,-0.037686955,9.756136,0.017867794,-0.008857539,-0.00962112,-635.0813,-238.51875,-607.98755,watch_2
26238714306243,0.40917268,-0.05682954,9.765707,0.021532983,-0.019853106,-0.002290743,-635.0813,-238.51875,-607.98755,watch_2
26238709191139,0.40917268,-0.05682954,9.765707,0.021532983,-0.019853106,-0.002290743,-635.0813,-238.51875,-607.98755,watch_2
26238725274472,0.40917268,-0.05682954,9.765707,0.021532983,-0.019853106,-0.002290743,-634.6875,-237.45001,-608.775,watch_2
26238735274420,0.40917268,-0.05682954,9.765707,0.021532983,-0.019853106,-0.002290743,-634.6875,-237.45001,-608.775,watch_2
26238733960253,0.21774685,0.00059820566,9.823135,-0.009010255,-0.029626941,-0.004734202,-634.6875,-237.45001,-608.775,watch_2
26238728845149,0.21774685,0.00059820566,9.823135,-0.009010255,-0.029626941,-0.004734202,-634.6875,-237.45001,-608.775,watch_2
26238745274368,0.21774685,0.00059820566,9.823135,-0.009010255,-0.029626941,-0.004734202,-635.85004,-235.93126,-608.325,watch_2
26238755274316,0.21774685,0.00059820566,9.823135,-0.009010255,-0.029626941,-0.004734202,-635.85004,-235.93126,-608.325,watch_2
26238753582232,0.48095736,-0.032901313,9.655638,-0.005345067,-0.0736092,-0.00962112,-635.85004,-235.93126,-608.325,watch_2
26238748467128,0.48095736,-0.032901313,9.655638,-0.005345067,-0.0736092,-0.00962112,-635.85004,-235.93126,-608.325,watch_2
26238765274264,0.48095736,-0.032901313,9.655638,-0.005345067,-0.0736092,-0.00962112,-634.53754,-237.58125,-608.60626,watch_2
26238775274211,0.48095736,-0.032901313,9.655638,-0.005345067,-0.0736092,-0.00962112,-635.90625,-236.15627,-610.5,watch_2
26238773236243,0.3804588,-0.0041874396,9.736994,-0.011453714,-0.028405212,-0.008399391,-635.90625,-236.15627,-610.5,watch_2
26238785274159,0.3804588,-0.0041874396,9.736994,-0.011453714,-0.028405212,-0.008399391,-633.6375,-236.04376,-609.09375,watch_2
26238768121139,0.3804588,-0.0041874396,9.736994,-0.011453714,-0.028405212,-0.008399391,-633.6375,-236.04376,-609.09375,watch_2
26238795274107,0.3804588,-0.0041874396,9.736994,-0.011453714,-0.028405212,-0.008399391,-632.8688,-237.20625,-609.3188,watch_2
26238787744159,0.4331009,-0.01375873,9.756136,-0.0151189035,-0.00763581,0.0001527162,-634.80005,-236.86876,-610.875,watch_2
26238805274055,0.4331009,-0.01375873,9.756136,-0.0151189035,-0.00763581,0.0001527162,-634.80005,-236.86876,-610.875,watch_2
26238792859264,0.4331009,-0.01375873,9.756136,-0.0151189035,-0.00763581,0.0001527162,-634.80005,-236.86876,-610.875,watch_2
26238815274003,0.4331009,-0.01375873,9.756136,-0.0151189035,-0.00763581,0.0001527162,-635.41876,-235.9875,-609.30005,watch_2
26238812481243,0.44745782,-0.0424726,9.741779,-0.027336199,0.016798781,-0.004734202,-635.41876,-235.9875,-609.30005,watch_2
26238807366139,0.44745782,-0.0424726,9.741779,-0.027336199,0.016798781,-0.004734202,-635.41876,-235.9875,-609.30005,watch_2
26238825273951,0.44745782,-0.0424726,9.741779,-0.027336199,0.016798781,-0.004734202,-634.0688,-235.96877,-608.85004,watch_2
26238835273899,0.44745782,-0.0424726,9.741779,-0.027336199,0.016798781,-0.004734202,-635.0625,-238.20001,-609.1875,watch_2
26238832135253,0.45702913,-0.066400826,9.756136,-0.02489274,0.022907428,-0.0010690134,-634.7625,-236.58751,-610.1813,watch_2
26238845273847,0.45702913,-0.066400826,9.756136,-0.02489274,0.022907428,-0.0010690134,-634.7625,-236.58751,-610.1813,watch_2
26238827020149,0.45702913,-0.066400826,9.756136,-0.02489274,0.022907428,-0.0010690134,-634.7625,-236.58751,-610.1813,watch_2
26238855273795,0.45702913,-0.066400826,9.756136,-0.02489274,0.022907428,-0.0010690134,-635.73755,-237.6,-608.8875,watch_2
26238865273743,0.34217364,-0.047258247,9.727423,-0.034666575,0.01924224,0.0025961753,-635.7563,-237.56252,-610.05005,watch_2
26238846642128,0.34217364,-0.047258247,9.727423,-0.034666575,0.01924224,0.0025961753,-635.7563,-237.56252,-610.05005,watch_2
26238851757232,0.34217364,-0.047258247,9.727423,-0.034666575,0.01924224,0.0025961753,-635.7563,-237.56252,-610.05005,watch_2
26238875273691,0.34217364,-0.047258247,9.727423,-0.034666575,0.01924224,0.0025961753,-634.7063,-237.76875,-608.025,watch_2
26238871411243,0.36131623,-0.05682954,9.736994,-0.034666575,0.01924224,0.0025961753,-634.7063,-237.76875,-608.025,watch_2
26238866296139,0.36131623,-0.05682954,9.736994,-0.0151189035,0.0021380268,0.0050396346,-635.6813,-236.85,-610.40625,watch_2
26238885273639,0.36131623,-0.05682954,9.736994,-0.0151189035,0.0021380268,0.0050396346,-635.6813,-236.85,-610.40625,watch_2
26238895273586,0.36131623,-0.05682954,9.736994,-0.0151189035,0.0021380268,0.0050396346,-634.575,-236.77501,-606.78754,watch_2
26238885919159,0.36610186,-0.052043892,9.736994,0.006872229,-0.021074835,0.0050396346,-634.575,-236.77501,-606.78754,watch_2
26238891034264,0.36610186,-0.052043892,9.736994,0.006872229,-0.021074835,0.0050396346,-634.575,-236.77501,-606.78754,watch_2
26238905273534,0.36610186,-0.052043892,9.736994,0.006872229,-0.021074835,0.0050396346,-635.8313,-236.71877,-610.29376,watch_2
26238915273482,0.36610186,-0.052043892,9.736994,0.006872229,-0.021074835,0.0050396346,-634.7438,-238.20001,-607.98755,watch_2
26238910656243,0.3900301,-0.05682954,9.736994,0.0056504994,-0.013744458,0.0025961753,-633.16876,-237.26251,-608.625,watch_2
26238905541139,0.3900301,-0.05682954,9.736994,0.0056504994,-0.013744458,0.0025961753,-633.16876,-237.26251,-608.625,watch_2
26238925273430,0.3900301,-0.05682954,9.736994,0.0056504994,-0.013744458,0.0025961753,-633.16876,-237.26251,-608.625,watch_2
26238935273378,0.3900301,-0.05682954,9.736994,0.0056504994,-0.013744458,0.0025961753,-632.025,-238.31252,-605.47504,watch_2
26238925195149,0.4426722,-0.05682954,9.741779,0.009315688,-0.00641408,-0.0010690134,-632.025,-238.31252,-605.47504,watch_2
26238930310253,0.4426722,-0.05682954,9.741779,0.009315688,-0.00641408,-0.0010690134,-632.025,-238.31252,-605.47504,watch_2
26238945273326,0.4426722,-0.05682954,9.741779,0.009315688,-0.00641408,-0.0010690134,-634.85626,-237.93752,-606.86255,watch_2
26238955273274,0.4426722,-0.05682954,9.741779,0.009315688,-0.00641408,-0.0010690134,-634.8938,-238.36876,-606.825,watch_2
26238944818118,0.39481574,-0.052043892,9.736994,0.010537418,-0.023518294,-0.002290743,-634.8938,-238.36876,-606.825,watch_2
26238949933222,0.39481574,-0.052043892,9.736994,0.010537418,-0.023518294,-0.002290743,-634.8938,-238.36876,-606.825,watch_2
26238965273222,0.39481574,-0.052043892,9.736994,0.010537418,-0.023518294,-0.002290743,-634.91254,-239.45625,-609.3375,watch_2
26238975273170,0.39481574,-0.052043892,9.736994,0.010537418,-0.023518294,-0.002290743,-633.60004,-237.33751,-607.9313,watch_2
26238964471139,0.39481574,-0.037686955,9.741779,0.008093959,-0.024740024,0.0013744457,-633.60004,-237.33751,-607.9313,watch_2
26238985273118,0.39481574,-0.037686955,9.741779,0.008093959,-0.024740024,0.0013744457,-633.6938,-238.03127,-608.60626,watch_2
26238969586243,0.39481574,-0.037686955,9.741779,0.008093959,-0.024740024,0.0013744457,-633.6938,-238.03127,-608.60626,watch_2
26238995273066,0.39481574,-0.037686955,9.741779,0.008093959,-0.024740024,0.0013744457,-633.86255,-236.94376,-608.0063,watch_2
26238989209264,0.3900301,-0.037686955,9.756136,0.019089524,-0.022296565,0.0050396346,-633.86255,-236.94376,-608.0063,watch_2
26238984094159,0.3900301,-0.037686955,9.756136,0.019089524,-0.022296565,0.0050396346,-633.86255,-236.94376,-608.0063,watch_2
26239005273014,0.3900301,-0.037686955,9.756136,0.019089524,-0.022296565,0.0050396346,-633.03754,-237.69376,-607.6875,watch_2
26239015272961,0.3900301,-0.037686955,9.756136,0.019089524,-0.022296565,0.0050396346,-636.0563,-237.63751,-608.92505,watch_2
26239008831243,0.37567315,-0.037686955,9.746565,0.009315688,-0.0051923506,0.006261364,-636.0563,-237.63751,-608.92505,watch_2
26239003716139,0.37567315,-0.037686955,9.746565,0.009315688,-0.0051923506,0.006261364,-636.0563,-237.63751,-608.92505,watch_2
26239025272909,0.37567315,-0.037686955,9.746565,0.009315688,-0.0051923506,0.006261364,-634.0688,-237.56252,-607.10626,watch_2
26239035272857,0.37567315,-0.037686955,9.746565,0.009315688,-0.0051923506,0.006261364,-634.66876,-237.4875,-607.7625,watch_2
26239023370149,0.3182454,0.005383851,9.808778,-0.010231985,-0.014966187,0.003817905,-634.66876,-237.4875,-607.7625,watch_2
26239028485253,0.3182454,0.005383851,9.808778,-0.010231985,-0.014966187,0.003817905,-634.66876,-237.4875,-607.7625,watch_2
26239045272805,0.3182454,0.005383851,9.808778,-0.010231985,-0.014966187,0.003817905,-634.3125,-238.10626,-609.3938,watch_2
26239055272753,0.5096712,-0.037686955,9.713065,-0.010231985,-0.014966187,0.003817905,-633.6188,-236.04376,-608.6438,watch_2
26239048108222,0.5096712,-0.037686955,9.713065,-0.010231985,-0.014966187,0.003817905,-633.6188,-236.04376,-608.6438,watch_2
26239042993118,0.5096712,-0.037686955,9.713065,-0.012675445,-0.049174614,0.016035201,-634.42505,-236.58751,-608.6813,watch_2
26239065272701,0.5096712,-0.037686955,9.713065,-0.012675445,-0.049174614,0.016035201,-634.42505,-236.58751,-608.6813,watch_2
26239075272649,0.5096712,-0.037686955,9.713065,-0.012675445,-0.049174614,0.016035201,-633.28125,-236.68126,-610.29376,watch_2
26239067761243,0.47138608,-0.09032906,9.727423,-0.02367101,-0.03451386,0.016035201,-633.28125,-236.68126,-610.29376,watch_2
26239062646139,0.47138608,-0.09032906,9.727423,-0.02367101,-0.03451386,0.016035201,-633.28125,-236.68126,-610.29376,watch_2
26239085272597,0.47138608,-0.09032906,9.727423,-0.02367101,-0.03451386,0.016035201,-635.98126,-236.90627,-609.41254,watch_2
26239095272545,0.485743,-0.0951147,9.75135,-0.02367101,-0.03451386,0.016035201,-634.21875,-237.4125,-608.0063,watch_2
26239087384264,0.485743,-0.0951147,9.75135,-0.02367101,-0.03451386,0.016035201,-634.21875,-237.4125,-608.0063,watch_2
26239082269159,0.485743,-0.0951147,9.75135,-0.017562363,-0.027183482,0.003817905,-634.21875,-237.4125,-608.0063,watch_2
26239105272493,0.485743,-0.0951147,9.75135,-0.017562363,-0.027183482,0.003817905,-634.5563,-237.24376,-610.8188,watch_2
26239107006243,0.33260235,-0.008973085,9.775279,-0.017562363,-0.027183482,0.003817905,-634.5563,-237.24376,-610.8188,watch_2
26239115272441,0.33260235,-0.008973085,9.775279,-0.017562363,-0.027183482,0.003817905,-634.5563,-237.24376,-610.8188,watch_2
26239101891139,0.33260235,-0.008973085,9.775279,-0.017562363,-0.050396346,0.0001527162,-634.5563,-237.24376,-610.8188,watch_2
26239125272389,0.33260235,-0.008973085,9.775279,-0.017562363,-0.050396346,0.0001527162,-635.0813,-236.94376,-609.16876,watch_2
26239126660253,0.3469593,0.00059820566,9.856635,-0.017562363,-0.050396346,0.0001527162,-635.0813,-236.94376,-609.16876,watch_2
26239135272336,0.3469593,0.00059820566,9.856635,-0.017562363,-0.050396346,0.0001527162,-635.0813,-236.94376,-609.16876,watch_2
26239121545149,0.3469593,0.00059820566,9.856635,-0.018784093,-0.05894845,0.0001527162,-635.0813,-236.94376,-609.16876,watch_2
26239145272284,0.3469593,0.00059820566,9.856635,-0.018784093,-0.05894845,0.0001527162,-635.36255,-236.83125,-609.35626,watch_2
26239155272232,0.552742,0.019740786,10.158131,-0.085979216,0.040011644,-0.0108428495,-633.0,-235.83751,-608.4563,watch_2
26239146283222,0.552742,0.019740786,10.158131,-0.085979216,0.040011644,-0.0108428495,-633.0,-235.83751,-608.4563,watch_2
26239141168118,0.552742,0.019740786,10.158131,-0.085979216,0.040011644,-0.0108428495,-633.0,-235.83751,-608.4563,watch_2
26239165272180,0.552742,0.019740786,10.158131,-0.085979216,0.040011644,-0.0108428495,-636.2438,-236.83125,-607.85626,watch_2
26239165936243,0.8207382,-0.047258247,10.225129,-0.2509127,0.2159407,-0.015729768,-634.66876,-235.87502,-609.8063,watch_2
26239175272128,0.8207382,-0.047258247,10.225129,-0.2509127,0.2159407,-0.015729768,-634.66876,-235.87502,-609.8063,watch_2
26239160821139,0.8207382,-0.047258247,10.225129,-0.2509127,0.2159407,-0.015729768,-634.66876,-235.87502,-609.8063,watch_2
26239185272076,0.8207382,-0.047258247,10.225129,-0.2509127,0.2159407,-0.015729768,-636.9563,-236.175,-610.03125,watch_2
26239195272024,0.8207382,-0.047258247,10.225129,-0.2509127,0.2159407,-0.015729768,-635.28754,-236.1,-609.7125,watch_2
26239185559264,0.4426722,-0.13339986,10.311271,-0.2509127,0.2159407,-0.015729768,-635.28754,-236.1,-609.7125,watch_2
26239180444159,0.4426722,-0.13339986,10.311271,-0.3743074,0.29168794,-0.029168794,-635.28754,-236.1,-609.7125,watch_2
26239205271972,0.4426722,-0.13339986,10.311271,-0.3743074,0.29168794,-0.029168794,-635.23126,-235.36876,-610.5,watch_2
26239215271920,0.47138608,-0.123828575,11.392827,-0.3743074,0.29168794,-0.029168794,-636.2625,-237.1125,-607.8375,watch_2
26239200097128,0.47138608,-0.123828575,11.392827,-0.25579962,-0.049174614,-0.021838415,-636.2625,-237.1125,-607.8375,watch_2
26239205212232,0.47138608,-0.123828575,11.392827,-0.25579962,-0.049174614,-0.021838415,-636.2625,-237.1125,-607.8375,watch_2
26239225271868,0.47138608,-0.123828575,11.392827,-0.25579962,-0.049174614,-0.021838415,-634.61255,-236.7375,-609.28125,watch_2
26239224835253,-0.31345975,0.06759724,12.249457,-0.15195261,-0.21532984,0.01847866,-634.61255,-236.7375,-609.28125,watch_2
26239235271816,-0.31345975,0.06759724,12.249457,-0.15195261,-0.21532984,0.01847866,-634.16254,-236.6625,-609.9563,watch_2
26239219720149,-0.31345975,0.06759724,12.249457,-0.15195261,-0.21532984,0.01847866,-634.16254,-236.6625,-609.9563,watch_2
26239245271764,-0.31345975,0.06759724,12.249457,-0.15195261,-0.21532984,0.01847866,-634.6875,-237.45001,-609.5063,watch_2
26239239343118,-0.65324056,0.2973082,11.766108,0.21945317,-0.045509428,0.04046979,-634.6875,-237.45001,-609.5063,watch_2
26239244458222,-0.65324056,0.2973082,11.766108,0.21945317,-0.045509428,0.04046979,-634.6875,-237.45001,-609.5063,watch_2
26239255271711,-0.65324056,0.2973082,11.766108,0.21945317,-0.045509428,0.04046979,-635.53125,-237.00002,-608.47504,watch_2
26239265271659,-0.65324056,0.2973082,11.766108,0.21945317,-0.045509428,0.04046979,-634.1438,-236.3625,-610.275,watch_2
26239264111243,0.4331009,-0.037686955,11.416755,0.7130319,0.26725334,-0.002290743,-634.1438,-236.3625,-610.275,watch_2
26239258996139,0.4331009,-0.037686955,11.416755,0.7130319,0.26725334,-0.002290743,-634.1438,-236.3625,-610.275,watch_2
26239275271607,0.4331009,-0.037686955,11.416755,0.7130319,0.26725334,-0.002290743,-634.8375,-238.725,-609.825,watch_2
26239285271555,0.4331009,-0.037686955,11.416755,0.7130319,0.26725334,-0.002290743,-634.29376,-237.65627,-610.4625,watch_2
26239283734264,0.72502524,0.014955142,11.134402,1.00136,0.2782489,-0.019394957,-634.29376,-237.65627,-610.4625,watch_2
26239278619159,0.72502524,0.014955142,11.134402,1.00136,0.2782489,-0.019394957,-634.29376,-237.65627,-610.4625,watch_2
26239295271503,0.72502524,0.014955142,11.134402,1.00136,0.2782489,-0.019394957,-634.78125,-238.1625,-609.45,watch_2
26239305271451,0.72502524,0.014955142,11.134402,1.00136,0.2782489,-0.019394957,-636.5813,-239.51251,-610.3875,watch_2
26239303387232,0.3469593,-0.15732808,9.167501,0.9402736,0.07666353,0.013591741,-636.5813,-239.51251,-610.3875,watch_2
26239298272128,0.3469593,-0.15732808,9.167501,0.9402736,0.07666353,0.013591741,-636.5813,-239.51251,-610.3875,watch_2
26239315271399,0.3469593,-0.15732808,9.167501,0.9402736,0.07666353,0.013591741,-635.10004,-239.60626,-610.21875,watch_2
26239325271347,0.3469593,-0.15732808,9.167501,0.9402736,0.07666353,0.013591741,-635.0625,-240.90001,-608.92505,watch_2
26239323010253,0.2416751,0.053240303,7.8945203,0.9402736,0.07666353,0.013591741,-635.0625,-240.90001,-608.92505,watch_2
26239317895149,0.2416751,0.053240303,7.8945203,0.9598213,0.18784092,0.03924806,-635.0625,-240.90001,-608.92505,watch_2
26239335271295,0.2416751,0.053240303,7.8945203,0.9598213,0.18784092,0.03924806,-634.65,-241.10626,-609.5813,watch_2
26239345271243,0.2416751,0.053240303,7.8945203,0.9598213,0.18784092,0.03924806,-633.6375,-241.425,-609.0,watch_2
26239342633222,-0.05503492,0.3260221,7.7461653,0.9598213,0.18784092,0.03924806,-633.6375,-241.425,-609.0,watch_2
26239337518118,-0.05503492,0.3260221,7.7461653,0.9683734,0.42607817,0.012370012,-633.6375,-241.425,-609.0,watch_2
26239355271191,-0.05503492,0.3260221,7.7461653,0.9683734,0.42607817,0.012370012,-631.575,-240.93752,-605.4563,watch_2
26239365271139,-0.05503492,0.3260221,7.7461653,0.9683734,0.42607817,0.012370012,-634.03125,-241.05,-609.075,watch_2
26239362286243,0.29910284,0.3499503,6.7698936,0.71425366,0.27458373,0.04657844,-634.03125,-241.05,-609.075,watch_2
26239357171139,0.29910284,0.3499503,6.7698936,0.71425366,0.27458373,0.04657844,-634.03125,-241.05,-609.075,watch_2
26239375271086,0.29910284,0.3499503,6.7698936,0.71425366,0.27458373,0.04657844,-633.525,-241.83751,-608.79376,watch_2
26239385271034,0.29910284,0.3499503,6.7698936,0.71425366,0.27458373,0.04657844,-635.34375,-242.06252,-609.28125,watch_2
26239381909264,0.81595254,-0.0951147,4.9896336,0.27565274,0.08155045,0.10522146,-635.34375,-242.06252,-609.28125,watch_2
26239376794159,0.81595254,-0.0951147,4.9896336,0.27565274,0.08155045,0.10522146,-633.03754,-241.50002,-608.47504,watch_2
26239395270982,0.81595254,-0.0951147,4.9896336,0.27565274,0.08155045,0.10522146,-633.03754,-241.50002,-608.47504,watch_2
26239405270930,0.81595254,-0.0951147,4.9896336,0.27565274,0.08155045,0.10522146,-634.2,-242.475,-609.3938,watch_2
26239396447128,1.1078769,-0.4636094,4.171288,-0.2093739,0.04978548,0.0490219,-634.65,-242.70001,-608.1188,watch_2
26239415270878,1.1078769,-0.4636094,4.171288,-0.2093739,0.04978548,0.0490219,-634.65,-242.70001,-608.1188,watch_2
26239401562232,1.1078769,-0.4636094,4.171288,-0.2093739,0.04978548,0.0490219,-634.65,-242.70001,-608.1188,watch_2
26239425270826,1.1078769,-0.4636094,4.171288,-0.2093739,0.04978548,0.0490219,-634.3875,-241.51875,-609.075,watch_2
26239421185253,1.820938,-0.927817,4.1808596,-0.2093739,0.04978548,0.0490219,-634.3875,-241.51875,-609.075,watch_2
26239416070149,1.820938,-0.927817,4.1808596,-0.98517215,-0.18356487,0.14065161,-634.3875,-241.51875,-609.075,watch_2
26239435270774,1.820938,-0.927817,4.1808596,-0.98517215,-0.18356487,0.14065161,-633.91876,-240.05626,-608.1375,watch_2
26239445270722,1.820938,-0.927817,4.1808596,-0.98517215,-0.18356487,0.14065161,-633.9563,-238.89375,-609.86255,watch_2
26239440808222,1.9405792,-1.2053844,4.161717,-0.98517215,-0.18356487,0.14065161,-633.9563,-238.89375,-609.86255,watch_2
26239435693118,1.9405792,-1.2053844,4.161717,-2.074955,-0.72479105,0.41065386,-633.9563,-238.89375,-609.86255,watch_2
26239455270670,1.9405792,-1.2053844,4.161717,-2.074955,-0.72479105,0.41065386,-635.10004,-236.90627,-610.1813,watch_2
26239465270618,1.9405792,-1.2053844,4.161717,-2.074955,-0.72479105,0.41065386,-636.45,-236.94376,-610.78125,watch_2
26239460461243,0.6149554,-0.71246296,4.6211386,-2.074955,-0.72479105,0.41065386,-636.45,-236.94376,-610.78125,watch_2
26239455346139,0.6149554,-0.71246296,4.6211386,-2.8935137,-0.67103493,0.36422813,-636.45,-236.94376,-610.78125,watch_2
26239475270566,0.6149554,-0.71246296,4.6211386,-2.8935137,-0.67103493,0.36422813,-634.8375,-236.04376,-609.65625,watch_2
26239485270514,0.6149554,-0.71246296,4.6211386,-2.8935137,-0.67103493,0.36422813,-634.61255,-234.05626,-609.09375,watch_2
26239480084264,-4.2951164,3.1495528,24.333212,-1.6791146,0.49449503,0.28359398,-634.61255,-234.05626,-609.09375,watch_2
26239474969159,-4.2951164,3.1495528,24.333212,-1.6791146,0.49449503,0.28359398,-634.61255,-234.05626,-609.09375,watch_2
26239495270461,-4.2951164,3.1495528,24.333212,-1.6791146,0.49449503,0.28359398,-633.6938,-235.20001,-608.8875,watch_2
26239505270409,-4.2951164,3.1495528,24.333212,-1.6791146,0.49449503,0.28359398,-633.075,-236.56876,-607.66876,watch_2
26239494622128,2.0697916,-0.5401797,13.613366,2.4869833,0.029016078,0.20784675,-633.075,-236.56876,-607.66876,watch_2
26239499737232,2.0697916,-0.5401797,13.613366,2.4869833,0.029016078,0.20784675,-633.075,-236.56876,-607.66876,watch_2
26239515270357,2.0697916,-0.5401797,13.613366,2.4869833,0.029016078,0.20784675,-634.5563,-236.79376,-606.35626,watch_2
26239525270305,2.0697916,-0.5401797,13.613366,2.4869833,0.029016078,0.20784675,-633.60004,-235.74376,-609.3938,watch_2
26239519360253,-1.1796615,-2.7750762,6.4827547,-0.52580184,-0.0736092,0.22739442,-633.60004,-235.74376,-609.3938,watch_2
26239514245149,-1.1796615,-2.7750762,6.4827547,-0.52580184,-0.0736092,0.22739442,-633.60004,-235.74376,-609.3938,watch_2
26239535270253,-1.1796615,-2.7750762,6.4827547,-0.52580184,-0.0736092,0.22739442,-635.71875,-234.45001,-609.91876,watch_2
26239545270201,-1.1796615,-2.7750762,6.4827547,-0.52580184,-0.0736092,0.22739442,-635.0813,-236.925,-609.45,watch_2
26239533868118,0.3804588,-0.5401797,11.550753,0.11682789,-0.17134757,-0.11957678,-635.0813,-236.925,-609.45,watch_2
26239538983222,0.3804588,-0.5401797,11.550753,0.11682789,-0.17134757,-0.11957678,-635.0813,-236.925,-609.45,watch_2
26239555270149,0.3804588,-0.5401797,11.550753,0.11682789,-0.17134757,-0.11957678,-636.6938,-236.25002,-611.3063,watch_2
26239565270097,0.3804588,-0.5401797,11.550753,0.11682789,-0.17134757,-0.11957678,-633.84375,-238.21877,-607.72504,watch_2
26239553521139,0.3804588,-0.5401797,11.550753,-0.29000807,-0.29474226,-0.015729768,-633.84375,-238.21877,-607.72504,watch_2
26239573144159,0.3804588,-0.5401797,11.550753,-0.29000807,-0.29474226,-0.015729768,-633.84375,-238.21877,-607.72504,watch_2
26239592797128,0.3804588,-0.5401797,11.550753,0.25977024,-0.26908594,0.066126116,-633.84375,-238.21877,-607.72504,watch_2
26239612420149,0.3804588,-0.5401797,11.550753,1.2884666,0.14874557,-0.11835505,-633.84375,-238.21877,-607.72504,watch_2
26239632043118,0.3804588,-0.5401797,11.550753,1.724624,0.30390522,-0.3016145,-633.84375,-238.21877,-607.72504,watch_2
26239651696139,0.3804588,-0.5401797,11.550753,0.8901827,-0.0858265,-0.0010690134,-633.84375,-238.21877,-607.72504,watch_2
26239671319159,0.3804588,-0.5401797,11.550753,0.8901827,-0.0858265,-0.0010690134,-633.84375,-238.21877,-607.72504,watch_2
26239575270045,0.3804588,-0.5401797,11.550753,0.617737,-0.24465135,0.14920372,-633.3938,-233.71877,-610.3125,watch_2
