# Session ID: 20250816_124532
# Start Time: 1755341132630
# Device ID: watch_1
# Sample Count: 2526
# Generated by Watch IMU Recorder
timestamp,accel_x,accel_y,accel_z,gyro_x,gyro_y,gyro_z,mag_x,mag_y,mag_z,watch_name
26192863606515,0.3589234,0.01794617,9.817153,0.0,-0.0006108648,-0.0004581486,-90.1125,10.556251,44.0625,watch_1
26192876600994,0.3589234,0.01794617,9.817153,0.0,-0.0006108648,-0.0004581486,-89.325005,6.1687503,48.35625,watch_1
26192886600942,0.3589234,0.01794617,9.817153,0.0,-0.0006108648,-0.0004581486,-87.600006,5.3812504,49.36875,watch_1
26192882679536,0.3589234,0.013160525,9.817153,0.0,-0.0006108648,-0.0004581486,-87.600006,5.3812504,49.36875,watch_1
26192896600890,0.3589234,0.013160525,9.817153,0.0,-0.0006108648,-0.0004581486,-89.006256,8.1,46.4625,watch_1
26192906600838,0.3589234,0.013160525,9.817153,0.0,-0.0006108648,-0.0004581486,-85.03125,7.33125,47.1375,watch_1
26192901753546,0.37328035,0.032303106,9.807582,0.0,-0.0006108648,-0.0004581486,-85.03125,7.33125,47.1375,watch_1
26192916600786,0.37328035,0.032303106,9.807582,0.0,-0.0006108648,-0.0004581486,-91.21875,8.56875,44.568752,watch_1
26192926600734,0.37328035,0.032303106,9.807582,0.0,-0.0006108648,-0.0004581486,-90.75,7.5000005,44.5875,watch_1
26192920796515,0.39720857,0.03708875,9.826724,0.0,-0.0006108648,-0.0004581486,-90.75,7.5000005,44.5875,watch_1
26192936600681,0.39720857,0.03708875,9.826724,0.0,-0.0006108648,-0.0004581486,-91.21875,10.481251,41.175003,watch_1
26192946600629,0.39720857,0.03708875,9.826724,0.0,-0.0006108648,-0.0004581486,-90.8625,9.337501,43.21875,watch_1
26192939869536,0.3924229,0.022731815,9.812367,0.0,-0.0006108648,-0.0004581486,-90.8625,9.337501,43.21875,watch_1
26192956600577,0.3924229,0.022731815,9.812367,0.0,-0.0006108648,-0.0004581486,-90.09375,11.00625,42.5625,watch_1
26192966600525,0.3924229,0.022731815,9.812367,0.0,-0.0006108648,-0.0004581486,-89.90625,10.05,42.693752,watch_1
26192958943546,0.37806597,0.013160525,9.807582,0.0,-0.0006108648,-0.0004581486,-89.90625,10.05,42.693752,watch_1
26192953980786,0.37806597,0.013160525,9.807582,-0.0012217296,0.005497783,-0.0004581486,-89.90625,10.05,42.693752,watch_1
26192976600473,0.37806597,0.013160525,9.807582,-0.0012217296,0.005497783,-0.0004581486,-88.96875,10.293751,43.350002,watch_1
26192986600421,0.37806597,0.013160525,9.807582,-0.0012217296,0.005497783,-0.0004581486,-90.262505,9.262501,43.74375,watch_1
26192973053754,0.3589234,0.013160525,9.817153,0.0,0.0030543238,-0.0004581486,-90.262505,9.262501,43.74375,watch_1
26192978016515,0.3589234,0.013160525,9.817153,0.0,0.0030543238,-0.0004581486,-90.262505,9.262501,43.74375,watch_1
26192996600369,0.3589234,0.013160525,9.817153,0.0,0.0030543238,-0.0004581486,-91.387505,9.975,43.8375,watch_1
26192997090525,0.3589234,0.01794617,9.793225,0.0,0.0018325944,-0.0004581486,-91.387505,9.975,43.8375,watch_1
26192992127765,0.3589234,0.01794617,9.793225,0.0,0.0018325944,-0.0004581486,-89.475006,8.231251,44.2125,watch_1
26193006600317,0.3589234,0.01794617,9.793225,0.0,0.0018325944,-0.0004581486,-89.475006,8.231251,44.2125,watch_1
26193016600265,0.3589234,0.01794617,9.793225,0.0,0.0018325944,-0.0004581486,-92.4375,9.84375,43.725002,watch_1
26193016163546,0.3589234,0.022731815,9.826724,0.0,0.0018325944,-0.0004581486,-92.4375,9.84375,43.725002,watch_1
26193011200786,0.3589234,0.022731815,9.826724,0.0,-0.0006108648,-0.0004581486,-89.981255,10.425,43.95,watch_1
26193026600213,0.3589234,0.022731815,9.826724,0.0,-0.0006108648,-0.0004581486,-89.981255,10.425,43.95,watch_1
26193036600161,0.3589234,0.022731815,9.826724,0.0,-0.0006108648,-0.0004581486,-89.68125,12.075001,42.225002,watch_1
26193046600109,0.37806597,0.022731815,9.783653,-0.0012217296,-0.0042760535,-0.0004581486,-90.675,11.400001,41.006252,watch_1
26193035237504,0.37806597,0.022731815,9.783653,-0.0012217296,-0.0042760535,-0.0004581486,-90.675,11.400001,41.006252,watch_1
26193030274744,0.37806597,0.022731815,9.783653,-0.0012217296,-0.0042760535,-0.0004581486,-90.675,11.400001,41.006252,watch_1
26193056600056,0.37806597,0.022731815,9.783653,-0.0012217296,-0.0042760535,-0.0004581486,-88.59375,10.9125,43.03125,watch_1
26193054310525,0.37806597,0.01794617,9.836296,0.0,-0.0042760535,-0.0004581486,-88.59375,10.9125,43.03125,watch_1
26193049347765,0.37806597,0.01794617,9.836296,0.0,-0.0042760535,-0.0004581486,-88.59375,10.9125,43.03125,watch_1
26193066600004,0.37806597,0.01794617,9.836296,0.0,-0.0042760535,-0.0004581486,-92.25,10.293751,43.40625,watch_1
26193076599952,0.37806597,0.01794617,9.836296,0.0,-0.0042760535,-0.0004581486,-89.8125,10.575001,44.68125,watch_1
26193073384536,0.38763726,0.008374879,9.793225,-0.0012217296,0.0006108648,-0.0004581486,-89.8125,10.575001,44.68125,watch_1
26193068421775,0.38763726,0.008374879,9.793225,-0.0012217296,0.0006108648,-0.0004581486,-89.8125,10.575001,44.68125,watch_1
26193086599900,0.38763726,0.008374879,9.793225,-0.0012217296,0.0006108648,-0.0004581486,-89.90625,10.05,42.693752,watch_1
26193096599848,0.38763726,0.008374879,9.793225,-0.0012217296,0.0006108648,-0.0004581486,-89.4375,10.087501,43.4625,watch_1
26193087463754,0.37328035,0.013160525,9.802796,0.0,0.0042760535,-0.0004581486,-89.4375,10.087501,43.4625,watch_1
26193092426515,0.37328035,0.013160525,9.802796,0.0,0.0042760535,-0.0004581486,-89.4375,10.087501,43.4625,watch_1
26193106599796,0.37328035,0.013160525,9.802796,0.0,0.0042760535,-0.0004581486,-89.887505,10.368751,41.34375,watch_1
26193116599744,0.37328035,0.013160525,9.802796,0.0,0.0042760535,-0.0004581486,-89.887505,8.775001,43.10625,watch_1
26193106537765,0.3684947,0.022731815,9.807582,0.0,0.0030543238,-0.0004581486,-89.887505,8.775001,43.10625,watch_1
26193111500525,0.3684947,0.022731815,9.807582,0.0,0.0030543238,-0.0004581486,-89.887505,8.775001,43.10625,watch_1
26193126599692,0.3684947,0.022731815,9.807582,0.0,0.0030543238,-0.0004581486,-89.925,12.6,41.850002,watch_1
26193136599640,0.3684947,0.022731815,9.807582,0.0,0.0030543238,-0.0004581486,-91.275,10.9875,43.0125,watch_1
26193125610786,0.3493521,0.03708875,9.783653,0.0,0.0018325944,-0.0004581486,-91.275,10.9875,43.0125,watch_1
26193130573546,0.3493521,0.03708875,9.783653,0.0,0.0018325944,-0.0004581486,-91.275,10.9875,43.0125,watch_1
26193146599588,0.3493521,0.03708875,9.783653,0.0,0.0018325944,-0.0004581486,-89.793755,9.4875,43.331253,watch_1
26193156599536,0.3493521,0.03708875,9.783653,0.0,0.0018325944,-0.0004581486,-89.700005,10.5,42.525,watch_1
26193149647504,0.36370903,0.01794617,9.836296,0.0,0.0018325944,-0.0004581486,-89.700005,10.5,42.525,watch_1
26193144684744,0.36370903,0.01794617,9.836296,0.0,-0.0006108648,-0.0016798781,-90.28125,8.962501,44.775,watch_1
26193166599484,0.36370903,0.01794617,9.836296,0.0,-0.0006108648,-0.0016798781,-90.28125,8.962501,44.775,watch_1
26193176599431,0.36370903,0.01794617,9.836296,0.0,-0.0006108648,-0.0016798781,-88.762505,10.743751,43.7625,watch_1
26193168720525,0.37328035,0.01794617,9.788439,-0.0024434591,-0.0042760535,-0.0004581486,-88.762505,10.743751,43.7625,watch_1
26193163757765,0.37328035,0.01794617,9.788439,-0.0024434591,-0.0042760535,-0.0004581486,-88.762505,10.743751,43.7625,watch_1
26193186599379,0.37328035,0.01794617,9.788439,-0.0024434591,-0.0042760535,-0.0004581486,-90.01875,8.56875,44.850002,watch_1
26193196599327,0.37328035,0.01794617,9.788439,-0.0024434591,-0.0042760535,-0.0004581486,-90.76875,10.05,44.193752,watch_1
26193182831775,0.38763726,0.01794617,9.8219385,0.0,-0.0018325944,-0.0004581486,-90.76875,10.05,44.193752,watch_1
26193187794536,0.38763726,0.01794617,9.8219385,0.0,-0.0018325944,-0.0004581486,-90.76875,10.05,44.193752,watch_1
26193206599275,0.38763726,0.01794617,9.8219385,0.0,-0.0018325944,-0.0004581486,-91.3125,7.51875,45.975002,watch_1
26193201904744,0.38763726,0.01794617,9.8219385,-0.0012217296,0.0006108648,-0.0004581486,-91.443756,9.5625,42.412502,watch_1
26193206867504,0.37806597,0.032303106,9.807582,-0.0012217296,0.0006108648,-0.0004581486,-91.443756,9.5625,42.412502,watch_1
26193216599223,0.37806597,0.032303106,9.807582,-0.0012217296,0.0006108648,-0.0004581486,-91.443756,9.5625,42.412502,watch_1
26193226599171,0.37806597,0.032303106,9.807582,-0.0012217296,0.0006108648,-0.0004581486,-89.943756,11.19375,41.4,watch_1
26193225941515,0.3684947,0.02751746,9.802796,-0.0012217296,0.0030543238,-0.0004581486,-89.943756,11.19375,41.4,watch_1
26193220978754,0.3684947,0.02751746,9.802796,-0.0012217296,0.0030543238,-0.0004581486,-89.943756,11.19375,41.4,watch_1
26193236599119,0.3684947,0.02751746,9.802796,-0.0012217296,0.0030543238,-0.0004581486,-90.168755,12.993751,42.35625,watch_1
26193246599067,0.3684947,0.02751746,9.802796,-0.0012217296,0.0030543238,-0.0004581486,-90.01875,13.1625,41.643753,watch_1
26193240051775,0.3684947,0.02751746,9.802796,0.0,0.0030543238,-0.0004581486,-90.15,12.168751,40.987503,watch_1
26193256599015,0.3684947,0.02751746,9.802796,0.0,0.0030543238,-0.0004581486,-90.15,12.168751,40.987503,watch_1
26193245014536,0.3589234,0.013160525,9.817153,0.0,0.0030543238,-0.0004581486,-90.15,12.168751,40.987503,watch_1
26193266598963,0.3589234,0.013160525,9.817153,0.0,0.0030543238,-0.0004581486,-91.200005,12.0375,41.175003,watch_1
26193264057504,0.37328035,0.02751746,9.798011,-0.0012217296,0.0006108648,-0.0004581486,-91.200005,12.0375,41.175003,watch_1
26193259094744,0.37328035,0.02751746,9.798011,-0.0012217296,0.0006108648,-0.0004581486,-91.200005,12.0375,41.175003,watch_1
26193276598911,0.37328035,0.02751746,9.798011,-0.0012217296,0.0006108648,-0.0004581486,-90.168755,11.71875,42.05625,watch_1
26193286598859,0.37328035,0.02751746,9.798011,-0.0012217296,0.0006108648,-0.0004581486,-89.925,11.493751,41.081253,watch_1
26193283131515,0.37328035,0.01794617,9.812367,-0.0012217296,-0.0006108648,-0.0004581486,-89.925,11.493751,41.081253,watch_1
26193278168754,0.37328035,0.01794617,9.812367,-0.0012217296,-0.0006108648,-0.0004581486,-89.925,11.493751,41.081253,watch_1
26193296598806,0.37328035,0.01794617,9.812367,-0.0012217296,-0.0006108648,-0.0004581486,-90.7125,10.63125,43.40625,watch_1
26193302204536,0.38285163,0.008374879,9.802796,-0.0012217296,-0.0006108648,-0.0004581486,-90.15,11.681251,43.800003,watch_1
26193306598754,0.38285163,0.008374879,9.802796,-0.0012217296,-0.0006108648,-0.0004581486,-90.15,11.681251,43.800003,watch_1
26193297241775,0.38285163,0.008374879,9.802796,0.0,-0.0030543238,-0.0016798781,-90.15,11.681251,43.800003,watch_1
26193316598702,0.38285163,0.008374879,9.802796,0.0,-0.0030543238,-0.0016798781,-91.762505,12.056251,42.99375,watch_1
26193326598650,0.38285163,0.008374879,9.802796,0.0,-0.0030543238,-0.0016798781,-91.762505,12.056251,42.99375,watch_1
26193321278546,0.37806597,0.01794617,9.798011,-0.0012217296,-0.0018325944,-0.0004581486,-91.762505,12.056251,42.99375,watch_1
26193346598546,0.37806597,0.01794617,9.798011,-0.0012217296,-0.0018325944,-0.0004581486,-89.4,8.475,46.537502,watch_1
26193335388754,0.37806597,0.032303106,9.793225,0.0,0.0030543238,-0.0004581486,-89.64375,7.5750003,47.025,watch_1
26193354462765,0.36370903,0.01794617,9.802796,0.0012217296,0.0030543238,-0.0004581486,-88.875,10.856251,44.325,watch_1
26193316315786,0.36370903,0.01794617,9.802796,0.0012217296,0.0030543238,-0.0004581486,-88.875,10.856251,44.325,watch_1
26193356598494,0.37806597,0.032303106,9.793225,0.0,0.0030543238,-0.0004581486,-89.64375,7.5750003,45.862503,watch_1
26193366598442,0.36370903,0.01794617,9.802796,0.0012217296,0.0030543238,-0.0004581486,-88.875,10.856251,44.325,watch_1
26193359425525,0.36370903,0.01794617,9.802796,0.0012217296,0.0030543238,-0.0004581486,-89.568756,8.625,44.60625,watch_1
26193376598390,0.36370903,0.01794617,9.802796,0.0012217296,0.0030543238,-0.0004581486,-88.875,10.856251,44.325,watch_1
26193336598598,0.37806597,0.032303106,9.793225,0.0,0.0030543238,-0.0004581486,-89.64375,7.5750003,47.025,watch_1
26193340351515,0.37806597,0.032303106,9.793225,0.0,0.0030543238,-0.0004581486,-89.64375,7.5750003,47.025,watch_1
26193378498546,0.37328035,0.022731815,9.817153,-0.0012217296,0.0006108648,-0.0004581486,-89.568756,8.625,44.60625,watch_1
26193386598338,0.37328035,0.022731815,9.817153,-0.0012217296,0.0006108648,-0.0004581486,-89.568756,8.625,44.60625,watch_1
26193396598286,0.37328035,0.022731815,9.817153,-0.0012217296,0.0006108648,-0.0004581486,-89.53125,7.4812503,45.881252,watch_1
26193373535786,0.37328035,0.022731815,9.817153,-0.0012217296,0.0006108648,-0.0004581486,-89.53125,7.4812503,45.881252,watch_1
26193406598234,0.37328035,0.022731815,9.817153,-0.0012217296,0.0006108648,-0.0004581486,-89.53125,7.4812503,45.881252,watch_1
26193397572504,0.37328035,0.013160525,9.783653,-0.0012217296,0.0006108648,-0.0004581486,-89.53125,7.4812503,45.881252,watch_1
26193392609744,0.37328035,0.013160525,9.783653,-0.0012217296,0.0018325944,-0.0004581486,-89.53125,7.4812503,45.881252,watch_1
26193416598181,0.37328035,0.013160525,9.783653,-0.0012217296,0.0018325944,-0.0004581486,-89.287506,8.043751,47.025,watch_1
26193416615525,0.37328035,0.01794617,9.817153,-0.0012217296,0.0018325944,-0.0004581486,-89.287506,8.043751,47.025,watch_1
26193411652765,0.37328035,0.01794617,9.817153,0.0,-0.0006108648,-0.0004581486,-89.943756,10.70625,44.5125,watch_1
26193426598129,0.37328035,0.01794617,9.817153,0.0,-0.0006108648,-0.0004581486,-89.943756,10.70625,44.5125,watch_1
26193436598077,0.37328035,0.01794617,9.817153,0.0,-0.0006108648,-0.0004581486,-90.28125,10.368751,44.79375,watch_1
26193435688546,0.37328035,0.022731815,9.788439,-0.0012217296,-0.0030543238,-0.0004581486,-90.28125,10.368751,44.79375,watch_1
26193430725786,0.37328035,0.022731815,9.788439,-0.0012217296,-0.0030543238,-0.0004581486,-90.15,10.275001,43.65,watch_1
26193446598025,0.37328035,0.022731815,9.788439,-0.0012217296,-0.0030543238,-0.0004581486,-90.15,10.275001,43.65,watch_1
26193456597973,0.37328035,0.022731815,9.788439,-0.0012217296,-0.0030543238,-0.0004581486,-89.568756,11.493751,43.4625,watch_1
26193454762504,0.38285163,0.022731815,9.807582,0.0,-0.0006108648,-0.0004581486,-89.568756,11.493751,43.4625,watch_1
26193449799744,0.38285163,0.022731815,9.807582,0.0,-0.0006108648,-0.0004581486,-89.568756,11.493751,43.4625,watch_1
26193466597921,0.38285163,0.022731815,9.807582,0.0,-0.0006108648,-0.0004581486,-90.99375,11.0625,41.737503,watch_1
26193476597869,0.38285163,0.022731815,9.807582,0.0,-0.0006108648,-0.0004581486,-90.731255,10.650001,42.393753,watch_1
26193473835525,0.37328035,0.022731815,9.807582,0.0,-0.0006108648,-0.0004581486,-90.731255,10.650001,42.393753,watch_1
26193468872765,0.37328035,0.022731815,9.807582,0.0,0.0030543238,-0.0004581486,-90.731255,10.650001,42.393753,watch_1
26193486597817,0.37328035,0.022731815,9.807582,0.0,0.0030543238,-0.0004581486,-90.375,10.950001,43.55625,watch_1
26193496597765,0.37328035,0.022731815,9.807582,0.0,0.0030543238,-0.0004581486,-89.887505,11.45625,43.125,watch_1
26193492909536,0.38763726,-0.0011964113,9.716655,0.0,0.0030543238,-0.0004581486,-89.887505,11.45625,43.125,watch_1
26193487946775,0.38763726,-0.0011964113,9.716655,0.0,0.0018325944,0.0019853106,-89.887505,11.45625,43.125,watch_1
26193506597713,0.38763726,-0.0011964113,9.716655,0.0,0.0018325944,0.0019853106,-90.356255,11.587501,40.875,watch_1
26193516597661,0.38763726,-0.0011964113,9.716655,0.0,0.0018325944,0.0019853106,-91.65,11.962501,41.86875,watch_1
26193507019744,0.38763726,-0.0011964113,9.716655,0.056199558,-0.023823727,0.015424335,-91.65,11.962501,41.86875,watch_1
26193511982504,0.3397808,0.051445685,9.912866,0.056199558,-0.023823727,0.015424335,-91.65,11.962501,41.86875,watch_1
26193526597609,0.3397808,0.051445685,9.912866,0.056199558,-0.023823727,0.015424335,-89.86875,10.33125,42.65625,watch_1
26193536597556,0.3397808,0.051445685,9.912866,0.056199558,-0.023823727,0.015424335,-90.1125,11.025001,41.7,watch_1
26193531056515,0.4211368,0.046660043,9.802796,-0.036651887,-0.043371398,-0.0016798781,-90.1125,11.025001,41.7,watch_1
26193526093754,0.4211368,0.046660043,9.802796,-0.036651887,-0.043371398,-0.0016798781,-90.1125,11.025001,41.7,watch_1
26193546597504,0.4211368,0.046660043,9.802796,-0.036651887,-0.043371398,-0.0016798781,-91.93125,12.20625,41.5125,watch_1
26193556597452,0.4211368,0.046660043,9.802796,-0.036651887,-0.043371398,-0.0016798781,-91.125,11.175,42.43125,watch_1
26193545166775,0.41635114,-0.029910283,9.716655,-0.04886918,0.021380268,-0.0029016077,-91.125,11.175,42.43125,watch_1
26193550129536,0.41635114,-0.029910283,9.716655,-0.04886918,0.021380268,-0.0029016077,-91.125,11.175,42.43125,watch_1
26193566597400,0.41635114,-0.029910283,9.716655,-0.04886918,0.021380268,-0.0029016077,-91.387505,11.400001,42.825,watch_1
26193576597348,0.28235307,-0.025124637,9.687941,-0.04886918,0.021380268,-0.0029016077,-90.918755,11.606251,42.7125,watch_1
26193569203546,0.28235307,-0.025124637,9.687941,-0.04886918,0.021380268,-0.0029016077,-90.918755,11.606251,42.7125,watch_1
26193564240786,0.28235307,-0.025124637,9.687941,0.05253437,0.0067195124,-0.0004581486,-90.918755,11.606251,42.7125,watch_1
26193586597296,0.28235307,-0.025124637,9.687941,0.05253437,0.0067195124,-0.0004581486,-90.168755,11.71875,42.05625,watch_1
26193596597244,0.28235307,-0.025124637,9.687941,0.05253437,0.0067195124,-0.0004581486,-90.450005,10.556251,41.7,watch_1
26193583283754,0.44506502,0.13280165,10.027721,0.10506874,-0.18875721,-0.0004581486,-90.450005,10.556251,41.7,watch_1
26193588246515,0.44506502,0.13280165,10.027721,0.10506874,-0.18875721,-0.0004581486,-90.450005,10.556251,41.7,watch_1
26193606597192,0.44506502,0.13280165,10.027721,0.10506874,-0.18875721,-0.0004581486,-90.39375,11.2875,40.912502,watch_1
26193616597140,0.6269195,0.061016977,9.759726,0.10506874,-0.18875721,-0.0004581486,-90.731255,12.225,41.5125,watch_1
26193607319536,0.6269195,0.061016977,9.759726,0.10506874,-0.18875721,-0.0004581486,-90.731255,12.225,41.5125,watch_1
26193602356775,0.6269195,0.061016977,9.759726,-0.08307761,-0.048258316,0.00076358096,-90.731255,12.225,41.5125,watch_1
26193626597088,0.6269195,0.061016977,9.759726,-0.08307761,-0.048258316,0.00076358096,-90.7125,14.118751,39.43125,watch_1
26193636597036,0.6269195,0.061016977,9.759726,-0.08307761,-0.048258316,0.00076358096,-90.28125,11.981251,42.45,watch_1
26193626393546,0.33499518,-0.05383851,9.6783695,-0.08307761,-0.048258316,0.00076358096,-90.28125,11.981251,42.45,watch_1
26193621430786,0.33499518,-0.05383851,9.6783695,-0.07941242,0.3121519,-0.0004581486,-89.2125,12.431251,41.662502,watch_1
26193646596984,0.33499518,-0.05383851,9.6783695,-0.07941242,0.3121519,-0.0004581486,-89.2125,12.431251,41.662502,watch_1
26193645466515,0.16749759,0.046660043,9.673584,-0.07941242,0.3121519,-0.0004581486,-89.2125,12.431251,41.662502,watch_1
26193640503754,0.16749759,0.046660043,9.673584,0.023212861,0.14844014,-0.0016798781,-89.2125,12.431251,41.662502,watch_1
26193656596931,0.16749759,0.046660043,9.673584,0.023212861,0.14844014,-0.0016798781,-90.693756,11.08125,42.05625,watch_1
26193666596879,0.16749759,0.046660043,9.673584,0.023212861,0.14844014,-0.0016798781,-90.58125,12.4125,40.631252,watch_1
26193664540525,0.4019942,-0.0059820567,9.955936,0.023212861,0.14844014,-0.0016798781,-90.58125,12.4125,40.631252,watch_1
26193659577765,0.4019942,-0.0059820567,9.955936,-0.028099779,-0.18142684,-0.0004581486,-90.58125,12.4125,40.631252,watch_1
26193676596827,0.4019942,-0.0059820567,9.955936,-0.028099779,-0.18142684,-0.0004581486,-89.662506,12.356251,42.206253,watch_1
26193686596775,0.4019942,-0.0059820567,9.955936,-0.028099779,-0.18142684,-0.0004581486,-91.36875,10.6125,40.725002,watch_1
26193696596723,0.44985065,0.0035892338,9.740582,0.0012217296,-0.06902772,-0.0016798781,-91.106255,11.475,41.831253,watch_1
26193683613546,0.44985065,0.0035892338,9.740582,0.0012217296,-0.06902772,-0.0016798781,-91.106255,11.475,41.831253,watch_1
26193678650786,0.44985065,0.0035892338,9.740582,0.0012217296,-0.06902772,-0.0016798781,-91.106255,11.475,41.831253,watch_1
26193706596671,0.44985065,0.0035892338,9.740582,0.0012217296,-0.06902772,-0.0016798781,-91.125,11.175,41.850002,watch_1
26193697724744,0.44985065,0.0035892338,9.740582,0.047647454,-0.016493348,-0.005345067,-91.125,11.175,41.850002,watch_1
26193702687504,0.25842485,0.01794617,9.83151,0.047647454,-0.016493348,-0.005345067,-91.725006,11.25,41.625,watch_1
26193716596619,0.25842485,0.01794617,9.83151,0.047647454,-0.016493348,-0.005345067,-91.725006,11.25,41.625,watch_1
26193726596567,0.25842485,0.01794617,9.83151,0.047647454,-0.016493348,-0.005345067,-88.93125,12.168751,42.300003,watch_1
26193716797765,0.44985065,0.07058827,9.87458,0.05497783,-0.28527385,-0.009010255,-91.387505,11.887501,40.443752,watch_1
26193736596515,0.44985065,0.07058827,9.87458,0.05497783,-0.28527385,-0.009010255,-91.387505,11.887501,40.443752,watch_1
26193721760525,0.44985065,0.07058827,9.87458,0.05497783,-0.28527385,-0.009010255,-91.387505,11.887501,40.443752,watch_1
26193746596463,0.44985065,0.07058827,9.87458,0.05497783,-0.28527385,-0.009010255,-89.15625,11.587501,41.175003,watch_1
26193740833546,0.6364908,0.03708875,9.640084,0.05497783,-0.28527385,-0.009010255,-89.15625,11.587501,41.175003,watch_1
26193735870786,0.6364908,0.03708875,9.640084,0.015882485,-0.23029602,-0.0065667965,-89.15625,11.587501,41.175003,watch_1
26193756596411,0.6364908,0.03708875,9.640084,0.015882485,-0.23029602,-0.0065667965,-89.68125,12.056251,42.956253,watch_1
26193766596359,0.6364908,0.03708875,9.640084,0.015882485,-0.23029602,-0.0065667965,-90.450005,10.21875,44.34375,watch_1
26193759876515,0.3924229,-0.19740787,9.884152,0.015882485,-0.23029602,-0.0065667965,-90.450005,10.21875,44.34375,watch_1
26193754913754,0.3924229,-0.19740787,9.884152,0.034208428,0.06536253,0.0044287695,-90.450005,10.21875,44.34375,watch_1
26193776596306,0.3924229,-0.19740787,9.884152,0.034208428,0.06536253,0.0044287695,-90.24375,9.243751,45.1875,watch_1
26193786596254,0.3924229,-0.19740787,9.884152,0.034208428,0.06536253,0.0044287695,-91.481255,8.962501,43.912502,watch_1
26193778950525,0.2632105,0.01794617,9.970294,-0.047647454,0.15821397,-0.005345067,-91.481255,8.962501,43.912502,watch_1
26193773987765,0.2632105,0.01794617,9.970294,-0.047647454,0.15821397,-0.005345067,-91.481255,8.962501,43.912502,watch_1
26193796596202,0.2632105,0.01794617,9.970294,-0.047647454,0.15821397,-0.005345067,-90.95625,11.00625,44.362503,watch_1
26193806596150,0.2632105,0.01794617,9.970294,-0.047647454,0.15821397,-0.005345067,-90.3375,10.462501,40.85625,watch_1
26193798023546,0.66999036,0.20937198,9.664013,-0.047647454,0.15821397,-0.005345067,-90.3375,10.462501,40.85625,watch_1
26193793060786,0.66999036,0.20937198,9.664013,-0.12705988,-0.031154104,-0.022449281,-90.3375,10.462501,40.85625,watch_1
26193816596098,0.66999036,0.20937198,9.664013,-0.12705988,-0.031154104,-0.022449281,-89.34375,11.118751,42.05625,watch_1
26193826596046,0.66999036,0.20937198,9.664013,-0.12705988,-0.031154104,-0.022449281,-90.600006,8.45625,46.537502,watch_1
26193817097504,0.5455636,0.09451649,9.726226,-0.05986475,0.054366965,-0.017562363,-90.600006,8.45625,46.537502,watch_1
26193812134744,0.5455636,0.09451649,9.726226,-0.05986475,0.054366965,-0.017562363,-90.600006,8.45625,46.537502,watch_1
26193836595994,0.5455636,0.09451649,9.726226,-0.05986475,0.054366965,-0.017562363,-91.575005,9.84375,42.506252,watch_1
26193836170525,0.4354937,0.08015956,9.836296,-0.018325943,0.089797124,0.0019853106,-91.575005,9.84375,42.506252,watch_1
26193831207765,0.4354937,0.08015956,9.836296,-0.018325943,0.089797124,0.0019853106,-92.49375,9.4125,43.331253,watch_1
26193846595942,0.4354937,0.08015956,9.836296,-0.018325943,0.089797124,0.0019853106,-92.49375,9.4125,43.331253,watch_1
26193856595890,0.4354937,0.08015956,9.836296,-0.018325943,0.089797124,0.0019853106,-91.6875,11.53125,41.90625,watch_1
26193850281775,0.4354937,0.08015956,9.836296,0.047647454,-0.03848448,0.006872229,-90.9,10.1625,44.30625,watch_1
26193855244536,0.39720857,-0.08733802,9.807582,0.047647454,-0.03848448,0.006872229,-90.9,10.1625,44.30625,watch_1
26193866595838,0.39720857,-0.08733802,9.807582,0.047647454,-0.03848448,0.006872229,-90.9,10.1625,44.30625,watch_1
26193876595786,0.39720857,-0.08733802,9.807582,0.047647454,-0.03848448,0.006872229,-90.412506,9.39375,43.55625,watch_1
26193874317504,0.40677986,0.013160525,9.817153,0.067195125,-0.022601997,0.023976443,-90.412506,9.39375,43.55625,watch_1
26193869354744,0.40677986,0.013160525,9.817153,0.067195125,-0.022601997,0.023976443,-90.412506,9.39375,43.55625,watch_1
26193886595734,0.40677986,0.013160525,9.817153,0.067195125,-0.022601997,0.023976443,-90.3375,10.125,43.21875,watch_1
26193896595681,0.40677986,0.013160525,9.817153,0.067195125,-0.022601997,0.023976443,-90.075005,10.9875,43.59375,watch_1
26193893391515,0.67477596,0.10887343,9.836296,0.067195125,-0.022601997,0.023976443,-90.075005,10.9875,43.59375,watch_1
26193906595629,0.67477596,0.10887343,9.836296,0.0097738365,-0.04459313,0.008093959,-89.9625,12.31875,42.16875,watch_1
26193888428754,0.67477596,0.10887343,9.836296,0.0097738365,-0.04459313,0.008093959,-89.9625,12.31875,42.16875,watch_1
26193916595577,0.67477596,0.10887343,9.836296,0.0097738365,-0.04459313,0.008093959,-89.981255,12.01875,42.1875,watch_1
26193912464536,0.37806597,-0.04426722,9.687941,0.0097738365,-0.04459313,0.008093959,-89.981255,12.01875,42.1875,watch_1
26193907501775,0.37806597,-0.04426722,9.687941,0.0,-0.023823727,0.00076358096,-89.981255,12.01875,42.1875,watch_1
26193926595525,0.37806597,-0.04426722,9.687941,0.0,-0.023823727,0.00076358096,-90.75,11.94375,41.8125,watch_1
26193936595473,0.37806597,-0.04426722,9.687941,0.0,-0.023823727,0.00076358096,-88.18125,10.368751,45.037502,watch_1
26193931507504,0.35413775,-0.0011964113,9.841082,0.06963859,0.06902772,0.0056504994,-88.18125,10.368751,45.037502,watch_1
26193926544744,0.35413775,-0.0011964113,9.841082,0.06963859,0.06902772,0.0056504994,-88.18125,10.368751,45.037502,watch_1
26193946595421,0.35413775,-0.0011964113,9.841082,0.06963859,0.06902772,0.0056504994,-89.418755,10.387501,42.7125,watch_1
26193956595369,0.35413775,-0.0011964113,9.841082,0.06963859,0.06902772,0.0056504994,-90.76875,10.368751,41.831253,watch_1
26193966595317,0.4977071,0.06580263,9.759726,0.074525505,0.082466744,0.014202606,-89.26875,10.25625,43.3125,watch_1
26193945618754,0.4977071,0.06580263,9.759726,0.074525505,0.082466744,0.014202606,-89.26875,10.25625,43.3125,watch_1
26193950581515,0.4977071,0.06580263,9.759726,0.074525505,0.082466744,0.014202606,-89.26875,10.25625,43.3125,watch_1
26193976595265,0.4977071,0.06580263,9.759726,0.074525505,0.082466744,0.014202606,-89.68125,10.8,42.206253,watch_1
26193964691775,0.7848458,0.18544376,9.759726,0.06108648,0.059253883,0.023976443,-89.68125,10.8,42.206253,watch_1
26193969654536,0.7848458,0.18544376,9.759726,0.06108648,0.059253883,0.023976443,-89.68125,10.8,42.206253,watch_1
26193986595213,0.7848458,0.18544376,9.759726,0.06108648,0.059253883,0.023976443,-90.01875,12.056251,40.59375,watch_1
26193996595161,0.2009971,0.046660043,9.836296,0.06108648,0.059253883,0.023976443,-90.975006,11.34375,41.7,watch_1
26193988728546,0.2009971,0.046660043,9.836296,0.06108648,0.059253883,0.023976443,-90.975006,11.34375,41.7,watch_1
26193983765786,0.2009971,0.046660043,9.836296,0.06597339,0.023823727,0.03619374,-89.26875,11.700001,42.300003,watch_1
26194006595109,0.2009971,0.046660043,9.836296,0.06597339,0.023823727,0.03619374,-89.26875,11.700001,42.300003,watch_1
26194016595056,0.2009971,0.046660043,9.836296,0.06597339,0.023823727,0.03619374,-89.756256,10.2375,41.23125,watch_1
26194002838754,0.2632105,0.01794617,9.869795,0.039095346,0.027488915,0.03252855,-89.756256,10.2375,41.23125,watch_1
26194007801515,0.2632105,0.01794617,9.869795,0.039095346,0.027488915,0.03252855,-89.756256,10.2375,41.23125,watch_1
26194026595004,0.2632105,0.01794617,9.869795,0.039095346,0.027488915,0.03252855,-90.4875,10.59375,40.237503,watch_1
26194026875525,0.31585258,0.02751746,9.817153,0.0061086477,0.01527162,0.025198173,-90.4875,10.59375,40.237503,watch_1
26194021912765,0.31585258,0.02751746,9.817153,0.0061086477,0.01527162,0.025198173,-90.4875,10.59375,40.237503,watch_1
26194036594952,0.31585258,0.02751746,9.817153,0.0061086477,0.01527162,0.025198173,-89.0625,11.19375,40.78125,watch_1
26194046594900,0.31585258,0.02751746,9.817153,0.0061086477,0.01527162,0.025198173,-89.0625,11.19375,40.78125,watch_1
26194045948546,0.3924229,0.08973085,9.778868,0.0061086477,0.01527162,0.025198173,-89.0625,11.19375,40.78125,watch_1
26194040985786,0.3924229,0.08973085,9.778868,0.013439025,0.018936807,0.016646065,-89.0625,11.19375,40.78125,watch_1
26194056594848,0.3924229,0.08973085,9.778868,0.013439025,0.018936807,0.016646065,-89.606255,11.512501,42.15,watch_1
26194066594796,0.3924229,0.08973085,9.778868,0.013439025,0.018936807,0.016646065,-89.0625,12.281251,42.131252,watch_1
26194076594744,0.3924229,0.08973085,9.778868,0.008552107,0.032375835,0.015424335,-89.700005,10.5,42.525,watch_1
26194060059744,0.3924229,0.08973085,9.778868,0.008552107,0.032375835,0.015424335,-89.700005,10.5,42.525,watch_1
26194065022504,0.37328035,0.11844472,9.778868,0.008552107,0.032375835,0.015424335,-89.700005,10.5,42.525,watch_1
26194086594692,0.37328035,0.11844472,9.778868,0.008552107,0.032375835,0.015424335,-91.762505,10.950001,41.943752,watch_1
26194079132765,0.35413775,0.09451649,9.812367,-0.0061086477,0.017715078,0.011759147,-91.762505,10.950001,41.943752,watch_1
26194084095525,0.35413775,0.09451649,9.812367,-0.0061086477,0.017715078,0.011759147,-91.762505,10.950001,41.943752,watch_1
26194096594640,0.35413775,0.09451649,9.812367,-0.0061086477,0.017715078,0.011759147,-89.775,12.7875,40.96875,watch_1
26194106594588,0.35413775,0.09451649,9.812367,-0.0061086477,0.017715078,0.011759147,-89.775,12.7875,40.96875,watch_1
26194103138546,0.38285163,0.08015956,9.793225,-0.0061086477,0.017715078,0.011759147,-89.775,12.7875,40.96875,watch_1
26194098175786,0.38285163,0.08015956,9.793225,-0.0061086477,-0.011606431,0.009315688,-89.775,12.7875,40.96875,watch_1
26194116594536,0.38285163,0.08015956,9.793225,-0.0061086477,-0.011606431,0.009315688,-92.175,10.2375,39.9375,watch_1
26194126594484,0.38285163,0.08015956,9.793225,-0.0061086477,-0.011606431,0.009315688,-92.175,10.2375,39.9375,watch_1
26194117249744,0.39720857,0.05623133,9.807582,0.010995566,0.0030543238,-0.0029016077,-92.175,10.2375,39.9375,watch_1
26194122212504,0.39720857,0.05623133,9.807582,0.010995566,0.0030543238,-0.0029016077,-92.175,10.2375,39.9375,watch_1
26194136594431,0.39720857,0.05623133,9.807582,0.010995566,0.0030543238,-0.0029016077,-91.18125,12.01875,41.90625,watch_1
26194146594379,0.39720857,0.05623133,9.807582,0.010995566,0.0030543238,-0.0029016077,-90.46875,10.25625,43.03125,watch_1
26194141285525,0.37806597,0.07058827,9.802796,0.0073303776,0.0018325944,-0.004123337,-90.46875,10.25625,43.03125,watch_1
26194136322765,0.37806597,0.07058827,9.802796,0.0073303776,0.0018325944,-0.004123337,-90.46875,10.25625,43.03125,watch_1
26194156594327,0.37806597,0.07058827,9.802796,0.0073303776,0.0018325944,-0.004123337,-90.39375,11.2875,40.912502,watch_1
26194166594275,0.37806597,0.07058827,9.802796,0.0073303776,0.0018325944,-0.004123337,-91.36875,11.868751,41.475002,watch_1
26194160359536,0.43070808,0.104087785,9.783653,0.0073303776,0.0018325944,-0.004123337,-91.36875,11.868751,41.475002,watch_1
26194176594223,0.43070808,0.104087785,9.783653,-0.0061086477,-0.0018325944,-0.005345067,-91.51875,10.425,41.8875,watch_1
26194155396775,0.43070808,0.104087785,9.783653,-0.0061086477,-0.0018325944,-0.005345067,-91.51875,10.425,41.8875,watch_1
26194186594171,0.43070808,0.104087785,9.783653,-0.0061086477,-0.0018325944,-0.005345067,-89.4375,10.087501,43.4625,watch_1
26194179432504,0.3493521,0.07537391,9.798011,-0.0061086477,-0.0018325944,-0.005345067,-89.4375,10.087501,43.4625,watch_1
26194196594119,0.3493521,0.07537391,9.798011,0.014660755,-0.01282816,-0.0016798781,-91.350006,10.59375,41.30625,watch_1
26194174469744,0.3493521,0.07537391,9.798011,0.014660755,-0.01282816,-0.0016798781,-91.350006,10.59375,41.30625,watch_1
26194206594067,0.3493521,0.07537391,9.798011,0.014660755,-0.01282816,-0.0016798781,-89.043755,11.175,41.362503,watch_1
26194198506515,0.38285163,0.09930214,9.807582,0.023212861,-0.0030543238,0.00320704,-89.043755,11.175,41.362503,watch_1
26194193543754,0.38285163,0.09930214,9.807582,0.023212861,-0.0030543238,0.00320704,-89.043755,11.175,41.362503,watch_1
26194216594015,0.38285163,0.09930214,9.807582,0.023212861,-0.0030543238,0.00320704,-89.925,11.19375,42.131252,watch_1
26194226593963,0.38285163,0.09930214,9.807582,0.023212861,-0.0030543238,0.00320704,-89.83125,10.6125,43.068752,watch_1
26194217579536,0.37328035,0.08973085,9.788439,0.023212861,-0.0030543238,0.00320704,-89.83125,10.6125,43.068752,watch_1
26194212616775,0.37328035,0.08973085,9.788439,0.019547673,0.0067195124,0.006872229,-89.83125,10.6125,43.068752,watch_1
26194236593911,0.37328035,0.08973085,9.788439,0.019547673,0.0067195124,0.006872229,-90.7125,12.20625,42.375,watch_1
26194231690786,0.37806597,0.0849452,9.793225,0.0012217296,0.0042760535,0.0019853106,-90.7125,12.20625,42.375,watch_1
26194236653546,0.37806597,0.0849452,9.793225,0.0012217296,0.0042760535,0.0019853106,-90.7125,12.20625,42.375,watch_1
26194246593859,0.37806597,0.0849452,9.793225,0.0012217296,0.0042760535,0.0019853106,-91.256256,12.8625,41.381252,watch_1
26194256593806,0.37806597,0.0849452,9.793225,0.0012217296,0.0042760535,0.0019853106,-90.65625,12.975,40.425003,watch_1
26194255696515,0.37328035,0.08973085,9.8219385,0.0012217296,0.0042760535,0.0019853106,-90.65625,12.975,40.425003,watch_1
26194250733754,0.37328035,0.08973085,9.8219385,-0.010995566,-0.0006108648,0.00076358096,-90.65625,12.975,40.425003,watch_1
26194266593754,0.37328035,0.08973085,9.8219385,-0.010995566,-0.0006108648,0.00076358096,-89.756256,11.34375,42.28125,watch_1
26194276593702,0.37328035,0.08973085,9.8219385,-0.010995566,-0.0006108648,0.00076358096,-90.05625,11.2875,43.275,watch_1
26194274769536,0.38763726,0.09930214,9.798011,-0.0012217296,-0.011606431,-0.0016798781,-90.05625,11.2875,43.275,watch_1
26194269806775,0.38763726,0.09930214,9.798011,-0.0012217296,-0.011606431,-0.0016798781,-90.05625,11.2875,43.275,watch_1
26194286593650,0.38763726,0.09930214,9.798011,-0.0012217296,-0.011606431,-0.0016798781,-89.606255,11.53125,41.11875,watch_1
26194296593598,0.38763726,0.09930214,9.798011,-0.0012217296,-0.011606431,-0.0016798781,-91.256256,11.606251,41.2125,watch_1
26194288880786,0.38285163,0.11365908,9.817153,-0.0048869182,-0.0030543238,-0.005345067,-91.256256,11.606251,41.2125,watch_1
26194293843546,0.38285163,0.11365908,9.817153,-0.0048869182,-0.0030543238,-0.005345067,-91.256256,11.606251,41.2125,watch_1
26194306593546,0.38285163,0.11365908,9.817153,-0.0048869182,-0.0030543238,-0.005345067,-91.256256,11.606251,40.631252,watch_1
26194316593494,0.38285163,0.11365908,9.817153,-0.0048869182,-0.0030543238,-0.005345067,-90.975006,11.34375,41.7,watch_1
26194307953754,0.36370903,0.104087785,9.83151,-0.032986697,-0.031154104,-0.012675445,-90.975006,11.34375,41.7,watch_1
26194312916515,0.36370903,0.104087785,9.83151,-0.032986697,-0.031154104,-0.012675445,-90.975006,11.34375,41.7,watch_1
26194336593390,0.36370903,0.104087785,9.83151,-0.032986697,-0.031154104,-0.012675445,-91.33125,9.46875,40.987503,watch_1
26194326593442,0.36370903,0.104087785,9.83151,-0.032986697,-0.031154104,-0.012675445,-91.33125,9.46875,40.987503,watch_1
26194327026775,0.4019942,0.051445685,9.788439,-0.05864302,-0.064140804,-0.0151189035,-89.68125,12.39375,40.162502,watch_1
26194346593338,0.4019942,0.051445685,9.788439,-0.05864302,-0.064140804,-0.0151189035,-89.68125,12.39375,40.162502,watch_1
26194331989536,0.4019942,0.051445685,9.788439,-0.05864302,-0.064140804,-0.0151189035,-89.68125,12.39375,40.162502,watch_1
26194356593286,0.4019942,0.051445685,9.788439,-0.05864302,-0.064140804,-0.0151189035,-90.787506,11.962501,40.068752,watch_1
26194351063546,0.4354937,0.032303106,9.7501545,-0.036651887,-0.055588696,-0.0065667965,-90.787506,11.962501,40.068752,watch_1
26194346100786,0.4354937,0.032303106,9.7501545,-0.036651887,-0.055588696,-0.0065667965,-90.787506,11.962501,40.068752,watch_1
26194366593234,0.4354937,0.032303106,9.7501545,-0.036651887,-0.055588696,-0.0065667965,-90.787506,11.475,42.881252,watch_1
26194376593181,0.4354937,0.032303106,9.7501545,-0.036651887,-0.055588696,-0.0065667965,-91.443756,11.475,39.75,watch_1
26194370136515,0.42592242,0.061016977,9.778868,0.0024434591,-0.0140498895,0.00076358096,-91.443756,11.475,39.75,watch_1
26194365173754,0.42592242,0.061016977,9.778868,0.0024434591,-0.0140498895,0.00076358096,-91.443756,11.475,39.75,watch_1
26194386593129,0.42592242,0.061016977,9.778868,0.0024434591,-0.0140498895,0.00076358096,-90.637505,11.6625,42.0,watch_1
26194396593077,0.42592242,0.07058827,9.774082,0.0024434591,-0.0140498895,0.00076358096,-89.325005,11.418751,41.30625,watch_1
26194384247765,0.42592242,0.07058827,9.774082,0.0036651888,0.0042760535,-0.0004581486,-89.325005,11.418751,41.30625,watch_1
26194389210525,0.42592242,0.07058827,9.774082,0.0036651888,0.0042760535,-0.0004581486,-89.325005,11.418751,41.30625,watch_1
26194406593025,0.42592242,0.07058827,9.774082,0.0036651888,0.0042760535,-0.0004581486,-90.28125,11.19375,39.768753,watch_1
26194403320786,0.42592242,0.07058827,9.774082,0.012217295,0.020158539,-0.0016798781,-90.61875,11.64375,43.03125,watch_1
26194416592973,0.42592242,0.07058827,9.774082,0.012217295,0.020158539,-0.0016798781,-90.61875,11.64375,43.03125,watch_1
26194408283546,0.44506502,0.07058827,9.788439,0.012217295,0.020158539,-0.0016798781,-90.61875,11.64375,43.03125,watch_1
26194426592921,0.44506502,0.07058827,9.788439,0.012217295,0.020158539,-0.0016798781,-91.762505,12.375001,41.381252,watch_1
26194436592869,0.44506502,0.07058827,9.788439,0.012217295,0.020158539,-0.0016798781,-90.356255,11.56875,41.175003,watch_1
26194422363754,0.40677986,0.06580263,9.812367,0.019547673,0.032375835,0.0019853106,-90.356255,11.56875,41.175003,watch_1
26194427326515,0.40677986,0.06580263,9.812367,0.019547673,0.032375835,0.0019853106,-90.356255,11.56875,41.175003,watch_1
26194446592817,0.40677986,0.06580263,9.812367,0.019547673,0.032375835,0.0019853106,-90.95625,11.6625,40.21875,watch_1
26194446400525,0.40677986,0.08015956,9.812367,0.021991132,0.025045456,0.00076358096,-90.95625,11.6625,40.21875,watch_1
26194441437765,0.40677986,0.08015956,9.812367,0.021991132,0.025045456,0.00076358096,-90.95625,11.6625,40.21875,watch_1
26194456592765,0.40677986,0.08015956,9.812367,0.021991132,0.025045456,0.00076358096,-91.18125,9.65625,40.40625,watch_1
26194466592713,0.40677986,0.08015956,9.812367,0.021991132,0.025045456,0.00076358096,-91.36875,12.187501,39.693752,watch_1
26194465473546,0.38285163,0.06580263,9.731011,0.020769402,0.033597562,0.00076358096,-91.36875,12.187501,39.693752,watch_1
26194460510786,0.38285163,0.06580263,9.731011,0.020769402,0.033597562,0.00076358096,-91.36875,12.187501,39.693752,watch_1
26194476592661,0.38285163,0.06580263,9.731011,0.020769402,0.033597562,0.00076358096,-90.80625,10.087501,41.850002,watch_1
26194486592609,0.38285163,0.06580263,9.731011,0.020769402,0.033597562,0.00076358096,-90.5625,12.4125,40.93125,watch_1
26194484547504,0.37806597,0.05623133,9.826724,0.04886918,0.043371398,-0.0016798781,-90.5625,12.4125,40.93125,watch_1
26194479584744,0.37806597,0.05623133,9.826724,0.04886918,0.043371398,-0.0016798781,-90.5625,12.4125,40.93125,watch_1
26194496592556,0.37806597,0.05623133,9.826724,0.04886918,0.043371398,-0.0016798781,-91.200005,12.0375,40.893753,watch_1
26194506592504,0.37806597,0.05623133,9.826724,0.04886918,0.043371398,-0.0016798781,-90.3375,10.44375,41.1375,watch_1
26194503620525,0.3684947,0.10887343,9.826724,0.06352994,0.04214967,0.00076358096,-90.3375,10.44375,41.1375,watch_1
26194498657765,0.3684947,0.10887343,9.826724,0.06352994,0.04214967,0.00076358096,-90.3375,10.44375,41.1375,watch_1
26194516592452,0.3684947,0.10887343,9.826724,0.06352994,0.04214967,0.00076358096,-91.068756,11.90625,41.49375,watch_1
26194526592400,0.3684947,0.10887343,9.826724,0.06352994,0.04214967,0.00076358096,-90.0,10.78125,41.15625,watch_1
26194517731775,0.3684947,0.12323037,9.807582,0.043982264,0.026267186,0.00076358096,-89.25,12.150001,40.95,watch_1
26194536592348,0.3684947,0.12323037,9.807582,0.043982264,0.026267186,0.00076358096,-89.25,12.150001,40.95,watch_1
26194522694536,0.3684947,0.12323037,9.807582,0.043982264,0.026267186,0.00076358096,-89.25,12.150001,40.95,watch_1
26194546592296,0.3684947,0.12323037,9.807582,0.043982264,0.026267186,0.00076358096,-90.80625,11.512501,41.1375,watch_1
26194541767504,0.3684947,0.15194423,9.807582,0.019547673,0.01527162,-0.0029016077,-90.80625,11.512501,41.1375,watch_1
26194536804744,0.3684947,0.15194423,9.807582,0.019547673,0.01527162,-0.0029016077,-90.80625,11.512501,41.1375,watch_1
26194556592244,0.3684947,0.15194423,9.807582,0.019547673,0.01527162,-0.0029016077,-89.887505,10.368751,41.34375,watch_1
26194566592192,0.3684947,0.15194423,9.807582,0.019547673,0.01527162,-0.0029016077,-91.068756,10.650001,40.3125,watch_1
26194560841515,0.3589234,0.13758731,9.845867,0.008552107,0.011606431,-0.005345067,-89.8125,12.50625,41.006252,watch_1
26194576592140,0.3589234,0.13758731,9.845867,0.008552107,0.011606431,-0.005345067,-89.8125,12.50625,41.006252,watch_1
26194555878754,0.3589234,0.13758731,9.845867,0.008552107,0.011606431,-0.005345067,-89.8125,12.50625,41.006252,watch_1
26194586592088,0.37806597,0.09930214,9.774082,0.0,-0.020158539,-0.0016798781,-89.025,12.562501,42.393753,watch_1
26194579914536,0.37806597,0.09930214,9.774082,0.0,-0.020158539,-0.0016798781,-89.025,12.562501,42.393753,watch_1
26194574951775,0.37806597,0.09930214,9.774082,0.0,-0.020158539,-0.0016798781,-89.025,12.562501,42.393753,watch_1
26194596592036,0.37806597,0.09930214,9.774082,0.0,-0.020158539,-0.0016798781,-89.025,12.562501,42.393753,watch_1
26194606591984,0.37806597,0.09930214,9.774082,0.0,-0.020158539,-0.0016798781,-91.9875,10.06875,42.45,watch_1
26194598957504,0.3589234,0.09451649,9.793225,0.0,-0.020158539,-0.0016798781,-91.9875,10.06875,42.45,watch_1
26194593994744,0.3589234,0.09451649,9.793225,-0.0073303776,-0.007941242,-0.0004581486,-91.9875,10.06875,42.45,watch_1
26194616591931,0.3589234,0.09451649,9.793225,-0.0073303776,-0.007941242,-0.0004581486,-91.443756,11.137501,41.8125,watch_1
26194626591879,0.3589234,0.09451649,9.793225,-0.0073303776,-0.007941242,-0.0004581486,-90.412506,10.9875,41.9625,watch_1
26194618031515,0.37806597,0.08015956,9.774082,-0.0097738365,0.01282816,-0.007788526,-90.412506,10.9875,41.9625,watch_1
26194613068754,0.37806597,0.08015956,9.774082,-0.0097738365,0.01282816,-0.007788526,-90.412506,10.9875,41.9625,watch_1
26194636591827,0.37806597,0.08015956,9.774082,-0.0097738365,0.01282816,-0.007788526,-90.225006,10.03125,41.775,watch_1
26194637104536,0.3684947,0.10887343,9.83151,-0.0097738365,0.01282816,-0.007788526,-90.1125,9.46875,42.28125,watch_1
26194646591775,0.3684947,0.10887343,9.83151,-0.0097738365,0.01282816,-0.007788526,-90.1125,9.46875,42.28125,watch_1
26194632141775,0.3684947,0.10887343,9.83151,0.020769402,0.005497783,-0.0029016077,-90.1125,9.46875,42.28125,watch_1
26194656591723,0.3684947,0.10887343,9.83151,0.020769402,0.005497783,-0.0029016077,-89.8125,9.825001,40.96875,watch_1
26194656178546,0.4019942,0.15194423,9.798011,0.037873615,-0.03848448,0.0044287695,-89.8125,9.825001,40.96875,watch_1
26194651215786,0.4019942,0.15194423,9.798011,0.037873615,-0.03848448,0.0044287695,-89.8125,9.825001,40.96875,watch_1
26194666591671,0.4019942,0.15194423,9.798011,0.037873615,-0.03848448,0.0044287695,-90.1875,10.3125,42.037502,watch_1
26194676591619,0.4019942,0.15194423,9.798011,0.037873615,-0.03848448,0.0044287695,-89.981255,9.337501,42.16875,watch_1
26194670288754,0.39720857,0.17587246,9.759726,0.045203995,-0.0140498895,0.0019853106,-89.981255,9.337501,42.16875,watch_1
26194675251515,0.39720857,0.17587246,9.759726,0.045203995,-0.0140498895,0.0019853106,-89.981255,9.337501,42.16875,watch_1
26194686591567,0.39720857,0.17587246,9.759726,0.045203995,-0.0140498895,0.0019853106,-91.950005,10.81875,40.48125,watch_1
26194696591515,0.39720857,0.17587246,9.759726,0.045203995,-0.0140498895,0.0019853106,-91.950005,10.81875,40.48125,watch_1
26194694325525,0.37806597,0.13758731,9.812367,0.028099779,0.017715078,0.0019853106,-91.950005,10.81875,40.48125,watch_1
26194689362765,0.37806597,0.13758731,9.812367,0.028099779,0.017715078,0.0019853106,-91.950005,10.81875,40.48125,watch_1
26194706591463,0.37806597,0.13758731,9.812367,0.028099779,0.017715078,0.0019853106,-91.40625,11.4375,41.5125,watch_1
26194716591411,0.37806597,0.13758731,9.812367,0.028099779,0.017715078,0.0019853106,-91.40625,11.4375,41.5125,watch_1
26194713398546,0.38763726,0.10887343,9.788439,0.028099779,0.017715078,0.0019853106,-91.40625,11.4375,41.5125,watch_1
26194708435786,0.38763726,0.10887343,9.788439,0.018325943,0.055588696,0.006872229,-91.40625,11.4375,41.5125,watch_1
26194726591359,0.38763726,0.10887343,9.788439,0.018325943,0.055588696,0.006872229,-92.08125,9.337501,42.506252,watch_1
26194736591306,0.38763726,0.10887343,9.788439,0.018325943,0.055588696,0.006872229,-92.08125,9.337501,42.506252,watch_1
26194732472504,0.3684947,0.10887343,9.692726,0.062308207,0.08857539,0.027641632,-89.568756,11.8125,41.831253,watch_1
26194727509744,0.3684947,0.10887343,9.692726,0.062308207,0.08857539,0.027641632,-89.568756,11.8125,41.831253,watch_1
26194746591254,0.3684947,0.10887343,9.692726,0.062308207,0.08857539,0.027641632,-89.568756,11.8125,41.831253,watch_1
26194756591202,0.3684947,0.10887343,9.692726,0.062308207,0.08857539,0.027641632,-89.568756,11.8125,41.831253,watch_1
26194746582765,0.3684947,0.10887343,9.692726,0.10506874,0.12522727,0.019089524,-89.568756,11.8125,41.831253,watch_1
26194751545525,0.29671,0.19980069,9.855438,0.10506874,0.12522727,0.019089524,-89.568756,11.8125,41.831253,watch_1
26194766591150,0.29671,0.19980069,9.855438,0.10506874,0.12522727,0.019089524,-90.506256,12.656251,42.206253,watch_1
26194776591098,0.29671,0.19980069,9.855438,0.10506874,0.12522727,0.019089524,-90.506256,12.656251,42.206253,watch_1
26194765625786,0.30149564,0.22372891,9.855438,0.039095346,0.06658426,0.0044287695,-90.506256,12.656251,42.206253,watch_1
26194770588546,0.30149564,0.22372891,9.855438,0.039095346,0.06658426,0.0044287695,-90.506256,12.656251,42.206253,watch_1
26194786591046,0.30149564,0.22372891,9.855438,0.039095346,0.06658426,0.0044287695,-89.756256,9.76875,43.59375,watch_1
26194796590994,0.30149564,0.22372891,9.855438,0.039095346,0.06658426,0.0044287695,-88.6875,10.368751,42.075,watch_1
26194789662504,0.32063824,0.19501504,9.8219385,0.039095346,0.06658426,0.0044287695,-88.6875,10.368751,42.075,watch_1
26194784699744,0.32063824,0.19501504,9.8219385,0.008552107,0.010384701,0.00076358096,-88.6875,10.368751,42.075,watch_1
26194806590942,0.32063824,0.19501504,9.8219385,0.008552107,0.010384701,0.00076358096,-90.20625,11.4375,41.79375,watch_1
26194816590890,0.32063824,0.19501504,9.8219385,0.008552107,0.010384701,0.00076358096,-91.068756,11.90625,41.49375,watch_1
26194803772765,0.33020952,0.19501504,9.788439,0.018325943,-0.016493348,0.00076358096,-91.068756,11.90625,41.49375,watch_1
26194808735525,0.33020952,0.19501504,9.788439,0.018325943,-0.016493348,0.00076358096,-89.175,11.625,39.84375,watch_1
26194826590838,0.33020952,0.19501504,9.788439,0.018325943,-0.016493348,0.00076358096,-89.175,11.625,39.84375,watch_1
26194836590786,0.33020952,0.19501504,9.788439,0.018325943,-0.016493348,0.00076358096,-91.0875,10.368751,40.78125,watch_1
26194822846775,0.32542387,0.19501504,9.802796,-0.0012217296,-0.026267186,-0.0029016077,-91.0875,10.368751,40.78125,watch_1
26194827809536,0.32542387,0.19501504,9.802796,-0.0012217296,-0.026267186,-0.0029016077,-91.0875,10.368751,40.78125,watch_1
26194846590734,0.32542387,0.19501504,9.802796,-0.0012217296,-0.026267186,-0.0029016077,-90.356255,11.25,43.237503,watch_1
26194856590681,0.33020952,0.16630118,9.817153,-0.03176497,-0.025045456,-0.005345067,-90.46875,7.2562504,44.34375,watch_1
26194846882504,0.33020952,0.16630118,9.817153,-0.03176497,-0.025045456,-0.005345067,-90.46875,7.2562504,44.34375,watch_1
26194841919744,0.33020952,0.16630118,9.817153,-0.03176497,-0.025045456,-0.005345067,-90.46875,7.2562504,44.34375,watch_1
26194866590629,0.33020952,0.16630118,9.817153,-0.03176497,-0.025045456,-0.005345067,-90.9375,5.775,44.737503,watch_1
26194865956515,0.30149564,0.17108682,9.836296,-0.043982264,-0.016493348,-0.016340632,-90.9375,5.775,44.737503,watch_1
26194860993754,0.30149564,0.17108682,9.836296,-0.043982264,-0.016493348,-0.016340632,-90.7125,7.93125,43.818752,watch_1
26194876590577,0.30149564,0.17108682,9.836296,-0.043982264,-0.016493348,-0.016340632,-90.7125,7.93125,43.818752,watch_1
26194886590525,0.30149564,0.17108682,9.836296,-0.043982264,-0.016493348,-0.016340632,-89.025,8.137501,44.41875,watch_1
26194885029536,0.3924229,0.18065812,9.764511,-0.043982264,-0.016493348,-0.016340632,-89.025,8.137501,44.41875,watch_1
26194880066775,0.3924229,0.18065812,9.764511,-0.034208428,-0.032375835,-0.018784093,-89.025,8.137501,44.41875,watch_1
26194896590473,0.3924229,0.18065812,9.764511,-0.034208428,-0.032375835,-0.018784093,-89.49375,9.356251,44.25,watch_1
26194906590421,0.3924229,0.18065812,9.764511,-0.034208428,-0.032375835,-0.018784093,-89.381256,10.35,44.756252,watch_1
26194904103546,0.29671,0.13280165,9.764511,0.020769402,-0.037262753,-0.012675445,-89.381256,10.35,44.756252,watch_1
26194916590369,0.29671,0.13280165,9.764511,0.020769402,-0.037262753,-0.012675445,-88.068756,8.700001,44.34375,watch_1
26194899140786,0.29671,0.13280165,9.764511,0.020769402,-0.037262753,-0.012675445,-88.068756,8.700001,44.34375,watch_1
26194926590317,0.29671,0.13280165,9.764511,0.020769402,-0.037262753,-0.012675445,-89.49375,9.337501,44.831253,watch_1
26194923176515,0.3493521,0.17587246,9.8219385,0.0048869182,-0.051923506,-0.0029016077,-89.49375,9.337501,44.831253,watch_1
26194918213754,0.3493521,0.17587246,9.8219385,0.0048869182,-0.051923506,-0.0029016077,-89.49375,9.337501,44.831253,watch_1
26194936590265,0.3493521,0.17587246,9.8219385,0.0048869182,-0.051923506,-0.0029016077,-88.40625,8.34375,45.206253,watch_1
26194946590213,0.3493521,0.17587246,9.8219385,0.0048869182,-0.051923506,-0.0029016077,-88.875,9.75,43.275,watch_1
26194942219536,0.41156548,0.13758731,9.783653,0.0048869182,-0.08002329,-0.0004581486,-88.875,9.75,43.275,watch_1
26194937256775,0.41156548,0.13758731,9.783653,0.0048869182,-0.08002329,-0.0004581486,-88.875,9.75,43.275,watch_1
26194956590161,0.41156548,0.13758731,9.783653,0.0048869182,-0.08002329,-0.0004581486,-91.481255,6.2625003,44.775,watch_1
26194966590109,0.41156548,0.13758731,9.783653,0.0048869182,-0.08002329,-0.0004581486,-91.425,8.1,44.737503,watch_1
26194961292504,0.3924229,0.17587246,9.850653,0.034208428,-0.058032155,-0.004123337,-91.425,8.1,44.737503,watch_1
26194956329744,0.3924229,0.17587246,9.850653,0.034208428,-0.058032155,-0.004123337,-91.425,8.1,44.737503,watch_1
26194976590056,0.3924229,0.17587246,9.850653,0.034208428,-0.058032155,-0.004123337,-91.125,8.175,43.74375,watch_1
26194986590004,0.3924229,0.17587246,9.850653,0.034208428,-0.058032155,-0.004123337,-90.3375,8.53125,44.53125,watch_1
26194980366515,0.36370903,0.22851457,9.793225,0.02565632,-0.053145237,-0.011453714,-90.3375,8.53125,44.53125,watch_1
26194975403754,0.36370903,0.22851457,9.793225,0.02565632,-0.053145237,-0.011453714,-90.3375,8.53125,44.53125,watch_1
26194996589952,0.36370903,0.22851457,9.793225,0.02565632,-0.053145237,-0.011453714,-88.668755,10.35,42.65625,watch_1
26195006589900,0.36370903,0.22851457,9.793225,0.02565632,-0.053145237,-0.011453714,-91.70625,8.38125,43.66875,watch_1
26194999439536,0.34456646,0.31944183,9.740582,0.02565632,-0.053145237,-0.011453714,-91.70625,8.38125,43.66875,watch_1
26194994476775,0.34456646,0.31944183,9.740582,-0.045203995,-0.051923506,-0.021227552,-91.70625,8.38125,43.66875,watch_1
26195016589848,0.34456646,0.31944183,9.740582,-0.045203995,-0.051923506,-0.021227552,-89.025,8.45625,43.3875,watch_1
26195026589796,0.33020952,0.25722843,9.75494,-0.045203995,-0.051923506,-0.021227552,-90.9375,8.625,43.575,watch_1
26195018513546,0.33020952,0.25722843,9.75494,-0.045203995,-0.051923506,-0.021227552,-90.9375,8.625,43.575,watch_1
26195013550786,0.33020952,0.25722843,9.75494,-0.05742129,-0.007941242,-0.04444041,-90.9375,8.625,43.575,watch_1
26195036589744,0.33020952,0.25722843,9.75494,-0.05742129,-0.007941242,-0.04444041,-90.975006,11.34375,41.7,watch_1
26195046589692,0.33020952,0.25722843,9.75494,-0.05742129,-0.007941242,-0.04444041,-89.08125,10.40625,44.193752,watch_1
26195037586515,0.36370903,0.06580263,9.826724,-0.041538805,-0.007941242,-0.02489274,-89.08125,10.40625,44.193752,watch_1
26195032623754,0.36370903,0.06580263,9.826724,-0.041538805,-0.007941242,-0.02489274,-89.08125,10.40625,44.193752,watch_1
26195056589640,0.36370903,0.06580263,9.826724,-0.041538805,-0.007941242,-0.02489274,-90.75,10.35,43.143753,watch_1
26195051697765,0.4833502,0.02751746,9.7501545,0.03176497,-0.04214967,0.019089524,-90.75,10.35,43.143753,watch_1
26195056660525,0.4833502,0.02751746,9.7501545,0.03176497,-0.04214967,0.019089524,-89.71875,7.6875005,42.075,watch_1
26195066589588,0.4833502,0.02751746,9.7501545,0.03176497,-0.04214967,0.019089524,-89.71875,7.6875005,42.075,watch_1
26195076589536,0.4833502,0.02751746,9.7501545,0.03176497,-0.04214967,0.019089524,-90.15,9.1875,42.018753,watch_1
26195075733546,0.41156548,0.17587246,9.8219385,0.09773836,-0.0030543238,0.020311253,-90.15,9.1875,42.018753,watch_1
26195070770786,0.41156548,0.17587246,9.8219385,0.09773836,-0.0030543238,0.020311253,-90.15,9.1875,42.018753,watch_1
26195086589484,0.41156548,0.17587246,9.8219385,0.09773836,-0.0030543238,0.020311253,-89.006256,11.45625,41.775,watch_1
26195096589431,0.41156548,0.17587246,9.8219385,0.09773836,-0.0030543238,0.020311253,-89.006256,11.45625,41.775,watch_1
26195089813754,0.41156548,0.17587246,9.8219385,0.015882485,-0.0030543238,0.009315688,-89.006256,11.45625,41.775,watch_1
26195106589379,0.41156548,0.17587246,9.8219385,0.015882485,-0.0030543238,0.009315688,-90.731255,10.63125,43.10625,watch_1
26195094776515,0.53599226,0.18544376,9.72144,0.015882485,-0.0030543238,0.009315688,-90.731255,10.63125,43.10625,watch_1
26195116589327,0.53599226,0.18544376,9.72144,0.015882485,-0.0030543238,0.009315688,-91.18125,9.31875,42.9,watch_1
26195108887765,0.39720857,0.23330021,9.850653,0.0036651888,0.0018325944,-0.0065667965,-91.18125,9.31875,42.9,watch_1
26195113850525,0.39720857,0.23330021,9.850653,0.015882485,-0.0030543238,0.009315688,-91.18125,9.31875,42.9,watch_1
26195126589275,0.39720857,0.23330021,9.850653,0.0036651888,0.0018325944,-0.0065667965,-90.15,10.275001,44.081253,watch_1
26195136589223,0.39720857,0.23330021,9.850653,0.0036651888,0.0018325944,-0.0065667965,-89.100006,10.425,43.18125,watch_1
26195132923546,0.41156548,0.19980069,9.740582,0.0097738365,0.0006108648,-0.0029016077,-89.100006,10.425,43.18125,watch_1
26195127960786,0.41156548,0.19980069,9.740582,0.0097738365,0.0006108648,-0.0029016077,-89.100006,10.425,43.18125,watch_1
26195146589171,0.41156548,0.19980069,9.740582,0.0097738365,0.0006108648,-0.0029016077,-88.8375,8.587501,44.25,watch_1
26195156589119,0.41156548,0.19980069,9.740582,0.0097738365,0.0006108648,-0.0029016077,-89.700005,7.65,43.66875,watch_1
26195151997504,0.39720857,0.17587246,9.802796,0.0,0.023823727,0.00076358096,-89.700005,7.65,43.66875,watch_1
26195147034744,0.39720857,0.17587246,9.802796,0.0,0.023823727,0.00076358096,-89.700005,7.65,43.66875,watch_1
26195166589067,0.39720857,0.17587246,9.802796,0.0,0.023823727,0.00076358096,-90.1125,9.1125,44.925003,watch_1
26195176589015,0.39720857,0.17587246,9.802796,0.0,0.023823727,0.00076358096,-89.175,12.375001,43.987503,watch_1
26195171070525,0.37806597,0.17587246,9.855438,-0.0048869182,0.023823727,0.0044287695,-89.175,12.375001,43.987503,watch_1
26195166107765,0.37806597,0.17587246,9.855438,-0.0048869182,0.023823727,0.0044287695,-89.175,12.375001,43.987503,watch_1
26195186588963,0.37806597,0.17587246,9.855438,-0.0048869182,0.023823727,0.0044287695,-90.356255,10.481251,39.825,watch_1
26195196588911,0.37806597,0.17587246,9.855438,-0.0048869182,0.023823727,0.0044287695,-89.90625,10.06875,41.8125,watch_1
26195190144536,0.4019942,0.16630118,9.83151,-0.0048869182,0.023823727,0.0044287695,-89.90625,10.06875,41.8125,watch_1
26195206588859,0.4019942,0.16630118,9.83151,-0.028099779,-0.0140498895,0.00320704,-90.0,10.762501,41.4375,watch_1
26195185181775,0.4019942,0.16630118,9.83151,-0.028099779,-0.0140498895,0.00320704,-90.0,10.762501,41.4375,watch_1
26195216588806,0.4019942,0.16630118,9.83151,-0.028099779,-0.0140498895,0.00320704,-89.5875,11.83125,40.36875,watch_1
26195204254744,0.46899325,0.1902294,9.716655,-0.037873615,-0.03970621,-0.0004581486,-89.5875,11.83125,40.36875,watch_1
26195209217504,0.46899325,0.1902294,9.716655,-0.037873615,-0.03970621,-0.0004581486,-89.5875,11.83125,40.36875,watch_1
26195236588702,0.46899325,0.1902294,9.716655,-0.037873615,-0.03970621,-0.0004581486,-89.043755,11.15625,42.393753,watch_1
26195226588754,0.46899325,0.1902294,9.716655,-0.037873615,-0.03970621,-0.0004581486,-89.043755,11.15625,42.393753,watch_1
26195228291515,0.28713873,0.20937198,9.783653,-0.039095346,0.0067195124,-0.0016798781,-89.043755,11.15625,42.393753,watch_1
26195223328754,0.28713873,0.20937198,9.783653,-0.039095346,0.0067195124,-0.0016798781,-89.043755,11.15625,42.393753,watch_1
26195246588650,0.28713873,0.20937198,9.783653,-0.039095346,0.0067195124,-0.0016798781,-92.15625,8.793751,41.68125,watch_1
26195256588598,0.4977071,0.17108682,9.83151,-0.039095346,0.0067195124,-0.0016798781,-92.025,11.53125,40.125,watch_1
26195247364536,0.4977071,0.17108682,9.83151,-0.039095346,0.0067195124,-0.0016798781,-92.025,11.53125,40.125,watch_1
26195242401775,0.4977071,0.17108682,9.83151,-0.067195125,0.021380268,-0.0065667965,-92.025,11.53125,40.125,watch_1
26195266588546,0.4977071,0.17108682,9.83151,-0.067195125,0.021380268,-0.0065667965,-91.05,11.90625,41.79375,watch_1
26195266407504,0.37806597,0.16151553,9.759726,-0.03054324,0.01282816,-0.018784093,-91.05,11.90625,41.79375,watch_1
26195261444744,0.37806597,0.16151553,9.759726,-0.03054324,0.01282816,-0.018784093,-91.05,11.90625,41.79375,watch_1
26195276588494,0.37806597,0.16151553,9.759726,-0.03054324,0.01282816,-0.018784093,-90.75,12.243751,40.48125,watch_1
26195286588442,0.37806597,0.16151553,9.759726,-0.03054324,0.01282816,-0.018784093,-89.775,10.275001,39.91875,watch_1
26195285481515,0.39720857,0.12801601,9.87458,-0.03054324,0.01282816,-0.018784093,-89.775,10.275001,39.91875,watch_1
26195280518754,0.39720857,0.12801601,9.87458,-0.010995566,0.005497783,-0.012675445,-89.775,10.275001,39.91875,watch_1
26195296588390,0.39720857,0.12801601,9.87458,-0.010995566,0.005497783,-0.012675445,-90.0,12.056251,41.175003,watch_1
26195306588338,0.39720857,0.12801601,9.87458,-0.010995566,0.005497783,-0.012675445,-90.3375,10.44375,41.1375,watch_1
26195304554536,0.4211368,0.16151553,9.692726,-0.010995566,0.005497783,-0.012675445,-90.3375,10.44375,41.1375,watch_1
26195299591775,0.4211368,0.16151553,9.692726,-0.0012217296,-0.022601997,-0.0065667965,-90.3375,10.44375,41.1375,watch_1
26195316588286,0.4211368,0.16151553,9.692726,-0.0012217296,-0.022601997,-0.0065667965,-89.943756,10.087501,40.350002,watch_1
26195323628546,0.37328035,0.18544376,9.812367,-0.010995566,0.016493348,-0.018784093,-89.90625,10.368751,40.7625,watch_1
26195336588181,0.37328035,0.18544376,9.812367,-0.010995566,0.016493348,-0.018784093,-89.90625,10.368751,40.7625,watch_1
26195318665786,0.37328035,0.18544376,9.812367,-0.010995566,0.016493348,-0.018784093,-89.90625,10.368751,40.7625,watch_1
26195326588234,0.37328035,0.18544376,9.812367,-0.010995566,0.016493348,-0.018784093,-89.90625,10.368751,40.7625,watch_1
26195346588129,0.37328035,0.18544376,9.812367,-0.010995566,0.016493348,-0.018784093,-89.90625,10.368751,40.7625,watch_1
26195342701515,0.44027936,0.07058827,9.879367,-0.010995566,0.016493348,-0.018784093,-89.90625,10.368751,40.7625,watch_1
26195337738754,0.44027936,0.07058827,9.879367,-0.0036651888,-0.053145237,-0.02611447,-89.90625,10.368751,40.7625,watch_1
26195356588077,0.44027936,0.07058827,9.879367,-0.0036651888,-0.053145237,-0.02611447,-91.2375,10.1625,42.525,watch_1
26195356812765,0.37806597,0.14237295,9.7501545,0.02565632,-0.005497783,-0.010231985,-89.64375,7.5750003,47.025,watch_1
26195375885786,0.37806597,0.14237295,9.7501545,0.02565632,-0.005497783,-0.010231985,-89.0625,6.2625003,45.768753,watch_1
26195361775525,0.37806597,0.14237295,9.7501545,0.02565632,-0.005497783,-0.010231985,-89.0625,6.2625003,45.768753,watch_1
26195396587869,0.37806597,0.14237295,9.7501545,0.02565632,-0.005497783,-0.010231985,-89.0625,6.2625003,45.768753,watch_1
26195376587973,0.37806597,0.14237295,9.7501545,0.02565632,-0.005497783,-0.010231985,-89.0625,6.2625003,45.768753,watch_1
26195366588025,0.37806597,0.14237295,9.7501545,0.02565632,-0.005497783,-0.010231985,-89.0625,6.2625003,45.768753,watch_1
26195380848546,0.37806597,0.14237295,9.7501545,0.02565632,-0.005497783,-0.010231985,-89.0625,6.2625003,45.768753,watch_1
26195386587921,0.37806597,0.14237295,9.7501545,0.02565632,-0.005497783,-0.010231985,-89.64375,7.5750003,47.025,watch_1
26195406587817,0.37806597,0.14237295,9.7501545,0.02565632,-0.005497783,-0.010231985,-89.793755,6.3,46.55625,watch_1
26195399922504,0.47856453,0.13758731,9.884152,0.02565632,-0.005497783,-0.010231985,-89.793755,6.3,46.55625,watch_1
26195394959744,0.47856453,0.13758731,9.884152,0.012217295,0.059253883,-0.018784093,-89.793755,6.3,46.55625,watch_1
26195416587765,0.47856453,0.13758731,9.884152,0.012217295,0.059253883,-0.018784093,-89.287506,8.3625,45.393753,watch_1
26195426587713,0.47856453,0.13758731,9.884152,0.012217295,0.059253883,-0.018784093,-89.756256,6.58125,46.818752,watch_1
26195418995525,0.4881358,0.18544376,9.83151,-0.0024434591,0.04703659,0.00076358096,-89.756256,6.58125,46.818752,watch_1
26195414032765,0.4881358,0.18544376,9.83151,-0.0024434591,0.04703659,0.00076358096,-89.756256,6.58125,46.818752,watch_1
26195436587661,0.4881358,0.18544376,9.83151,-0.0024434591,0.04703659,0.00076358096,-88.912506,7.55625,45.956253,watch_1
26195446587609,0.4881358,0.18544376,9.83151,-0.0024434591,0.04703659,0.00076358096,-89.568756,8.625,45.3375,watch_1
26195438038546,0.49292147,0.12323037,9.731011,-0.0024434591,0.04703659,0.00076358096,-89.568756,8.625,45.3375,watch_1
26195433075786,0.49292147,0.12323037,9.731011,0.014660755,0.06291907,0.016646065,-89.568756,8.625,45.3375,watch_1
26195456587556,0.49292147,0.12323037,9.731011,0.014660755,0.06291907,0.016646065,-88.3125,7.4812503,46.893753,watch_1
26195466587504,0.49292147,0.12323037,9.731011,0.014660755,0.06291907,0.016646065,-87.693756,0.075,52.350002,watch_1
26195452149744,0.49292147,0.12323037,9.731011,0.056199558,0.06536253,0.017867794,-87.693756,0.075,52.350002,watch_1
26195457112504,0.33499518,0.11365908,9.865009,0.056199558,0.06536253,0.017867794,-87.693756,0.075,52.350002,watch_1
26195476587452,0.33499518,0.11365908,9.865009,0.056199558,0.06536253,0.017867794,-89.2125,4.8187504,46.912502,watch_1
26195471222765,0.33499518,0.11365908,9.865009,0.036651887,0.058032155,-0.005345067,-89.2125,4.8187504,46.912502,watch_1
26195486587400,0.28235307,0.17587246,9.884152,0.036651887,0.058032155,-0.005345067,-87.61875,1.125,50.2125,watch_1
26195476185525,0.28235307,0.17587246,9.884152,0.036651887,0.058032155,-0.005345067,-87.61875,1.125,50.2125,watch_1
26195496587348,0.28235307,0.17587246,9.884152,0.036651887,0.058032155,-0.005345067,-86.9625,7.6687503,46.0125,watch_1
26195506587296,0.13878371,-0.07776674,9.83151,-0.019547673,0.028710645,-0.05299252,-88.125,9.525001,44.68125,watch_1
26195490296775,0.13878371,-0.07776674,9.83151,-0.019547673,0.028710645,-0.05299252,-88.125,9.525001,44.68125,watch_1
26195495259536,0.13878371,-0.07776674,9.83151,-0.019547673,0.028710645,-0.05299252,-88.125,9.525001,44.68125,watch_1
26195516587244,0.13878371,-0.07776674,9.83151,-0.019547673,0.028710645,-0.05299252,-90.20625,10.012501,42.075,watch_1
26195514332504,0.4977071,0.17587246,9.898509,-0.019547673,0.028710645,-0.05299252,-90.20625,10.012501,42.075,watch_1
26195509369744,0.4977071,0.17587246,9.898509,-0.056199558,-0.016493348,-0.09697478,-88.8,10.462501,43.2,watch_1
26195526587192,0.4977071,0.17587246,9.898509,-0.056199558,-0.016493348,-0.09697478,-88.8,10.462501,43.2,watch_1
26195536587140,0.4977071,0.17587246,9.898509,-0.056199558,-0.016493348,-0.09697478,-90.05625,9.712501,44.006252,watch_1
26195533405525,0.5886344,0.47736812,9.965508,-0.056199558,-0.016493348,-0.09697478,-90.05625,9.712501,44.006252,watch_1
26195528442765,0.5886344,0.47736812,9.965508,-0.015882485,-0.06169734,-0.08720095,-90.05625,9.712501,44.006252,watch_1
26195546587088,0.5886344,0.47736812,9.965508,-0.015882485,-0.06169734,-0.08720095,-88.575005,8.512501,42.99375,watch_1
26195556587036,0.5886344,0.47736812,9.965508,-0.015882485,-0.06169734,-0.08720095,-91.481255,9.28125,42.881252,watch_1
26195552479536,0.37328035,0.46301118,9.888938,-0.015882485,-0.06169734,-0.08720095,-91.481255,9.28125,42.881252,watch_1
26195547516775,0.37328035,0.46301118,9.888938,0.0073303776,-0.048258316,-0.05054906,-91.481255,9.28125,42.881252,watch_1
26195566586984,0.37328035,0.46301118,9.888938,0.0073303776,-0.048258316,-0.05054906,-88.14375,9.543751,43.95,watch_1
26195576586931,0.37328035,0.46301118,9.888938,0.0073303776,-0.048258316,-0.05054906,-90.4875,8.681251,43.331253,watch_1
26195566589744,0.0047856453,0.11844472,9.826724,-0.047647454,-0.04214967,-0.041996952,-90.4875,8.681251,43.331253,watch_1
26195571552504,0.0047856453,0.11844472,9.826724,-0.047647454,-0.04214967,-0.041996952,-90.4875,8.681251,43.331253,watch_1
26195586586879,0.0047856453,0.11844472,9.826724,-0.047647454,-0.04214967,-0.041996952,-90.1875,10.3125,42.037502,watch_1
26195596586827,0.0047856453,0.11844472,9.826724,-0.047647454,-0.04214967,-0.041996952,-89.49375,8.25,43.5,watch_1
26195585663754,0.18664017,0.07537391,10.042078,-0.047647454,-0.059253883,-0.032223117,-89.49375,8.25,43.5,watch_1
26195590626515,0.18664017,0.07537391,10.042078,-0.047647454,-0.059253883,-0.032223117,-89.49375,8.25,43.5,watch_1
26195606586775,0.18664017,0.07537391,10.042078,-0.047647454,-0.059253883,-0.032223117,-91.293755,9.431251,43.3125,watch_1
26195616586723,0.18664017,0.07537391,10.042078,-0.047647454,-0.059253883,-0.032223117,-90.09375,9.4125,44.325,watch_1
26195609669536,0.47377887,0.11844472,9.994222,-0.047647454,-0.059253883,-0.032223117,-90.09375,9.4125,44.325,watch_1
26195604706775,0.47377887,0.11844472,9.994222,-0.056199558,-0.13133593,-0.032223117,-90.09375,9.4125,44.325,watch_1
26195626586671,0.47377887,0.11844472,9.994222,-0.056199558,-0.13133593,-0.032223117,-88.36875,10.5375,42.225002,watch_1
26195628742504,0.34456646,0.20937198,9.979865,-0.056199558,-0.13133593,-0.032223117,-90.225006,9.543751,44.737503,watch_1
26195636586619,0.34456646,0.20937198,9.979865,-0.056199558,-0.13133593,-0.032223117,-90.225006,9.543751,44.737503,watch_1
26195623779744,0.34456646,0.20937198,9.979865,-0.042760536,-0.14355323,-0.027336199,-90.225006,9.543751,44.737503,watch_1
26195646586567,0.34456646,0.20937198,9.979865,-0.042760536,-0.14355323,-0.027336199,-88.631256,10.63125,43.350002,watch_1
26195656586515,-0.043070808,0.5347959,11.449059,-0.042760536,-0.14355323,-0.027336199,-91.725006,8.38125,43.068752,watch_1
26195647816515,-0.043070808,0.5347959,11.449059,-0.042760536,-0.14355323,-0.027336199,-91.725006,8.38125,43.068752,watch_1
26195642853754,-0.043070808,0.5347959,11.449059,-0.018325943,-0.07391464,-0.004123337,-91.725006,8.38125,43.068752,watch_1
26195666586463,-0.043070808,0.5347959,11.449059,-0.018325943,-0.07391464,-0.004123337,-92.30625,9.712501,43.4625,watch_1
26195676586411,-0.043070808,0.5347959,11.449059,-0.018325943,-0.07391464,-0.004123337,-91.537506,10.125,42.206253,watch_1
26195666889536,0.79920274,-0.101694964,11.9515505,0.12950334,0.2669479,-0.009010255,-91.537506,10.125,42.206253,watch_1
26195661926775,0.79920274,-0.101694964,11.9515505,0.12950334,0.2669479,-0.009010255,-91.537506,10.125,42.206253,watch_1
26195686586359,0.79920274,-0.101694964,11.9515505,0.12950334,0.2669479,-0.009010255,-91.631256,9.09375,43.59375,watch_1
26195681000786,0.79920274,-0.101694964,11.9515505,0.3188714,0.33902994,-0.07864884,-91.631256,9.09375,43.59375,watch_1
26195685963546,1.1294123,-0.1160519,11.047064,0.3188714,0.33902994,-0.07864884,-91.631256,9.09375,43.59375,watch_1
26195696586306,0.42592242,-0.30269206,10.453644,0.3188714,0.33902994,-0.07864884,-91.293755,7.9875,44.325,watch_1
26195705036515,0.42592242,-0.30269206,10.453644,0.3188714,0.33902994,-0.07864884,-91.293755,7.9875,44.325,watch_1
26195706586254,0.42592242,-0.30269206,10.453644,0.3188714,0.33902994,-0.07864884,-91.59375,8.7375,47.41875,watch_1
26195716586202,0.42592242,-0.30269206,10.453644,0.3188714,0.33902994,-0.07864884,-90.975006,9.1125,46.425003,watch_1
26195726586150,0.31106696,0.14237295,9.783653,0.52656543,0.055588696,-0.06398808,-91.106255,7.8,47.850002,watch_1
26195724110525,0.31106696,0.14237295,9.783653,0.52656543,0.055588696,-0.06398808,-91.106255,7.8,47.850002,watch_1
26195700073754,0.31106696,0.14237295,9.783653,0.52656543,0.055588696,-0.06398808,-91.106255,7.8,47.850002,watch_1
26195719147765,0.31106696,0.14237295,9.783653,0.5253437,0.026267186,0.017867794,-91.106255,7.8,47.850002,watch_1
26195736586098,0.31106696,0.14237295,9.783653,0.5253437,0.026267186,0.017867794,-89.475006,9.0,47.34375,watch_1
26195746586046,0.31106696,0.14237295,9.783653,0.5253437,0.026267186,0.017867794,-92.83125,6.8437505,49.068752,watch_1
26195743183546,1.038485,0.66400826,8.850452,0.5253437,0.026267186,0.017867794,-92.83125,6.8437505,49.068752,watch_1
26195738220786,1.038485,0.66400826,8.850452,0.38851,0.13255766,0.067958705,-92.83125,6.8437505,49.068752,watch_1
26195756585994,1.038485,0.66400826,8.850452,0.38851,0.13255766,0.067958705,-92.4,4.8562503,51.3375,watch_1
26195766585942,1.038485,0.66400826,8.850452,0.38851,0.13255766,0.067958705,-89.25,4.8187504,52.425003,watch_1
26195762257504,0.95712906,0.87936234,9.037093,0.40683594,-0.07147118,0.067958705,-89.25,4.8187504,52.425003,watch_1
26195757294744,0.95712906,0.87936234,9.037093,0.40683594,-0.07147118,0.067958705,-89.25,4.8187504,52.425003,watch_1
26195776585890,0.95712906,0.87936234,9.037093,0.40683594,-0.07147118,0.067958705,-91.18125,4.8562503,52.631252,watch_1
26195786585838,0.95712906,0.87936234,9.037093,0.40683594,-0.07147118,0.067958705,-88.2375,5.775,53.325,watch_1
26195776337765,0.8039884,0.6687939,8.065607,0.34452772,-0.1472184,-0.05177079,-88.2375,5.775,53.325,watch_1
26195781300525,0.8039884,0.6687939,8.065607,0.34452772,-0.1472184,-0.05177079,-88.2375,5.775,53.325,watch_1
26195796585786,0.8039884,0.6687939,8.065607,0.34452772,-0.1472184,-0.05177079,-89.418755,6.24375,51.54375,watch_1
26195806585734,0.8039884,0.6687939,8.065607,0.34452772,-0.1472184,-0.05177079,-91.18125,6.6000004,50.287502,watch_1
26195800373546,0.22013968,0.30987054,7.070193,0.18203771,-0.15699224,-0.12140937,-91.18125,6.6000004,50.287502,watch_1
26195795410786,0.22013968,0.30987054,7.070193,0.18203771,-0.15699224,-0.12140937,-91.18125,6.6000004,50.287502,watch_1
26195816585681,0.22013968,0.30987054,7.070193,0.18203771,-0.15699224,-0.12140937,-92.475006,5.71875,50.381252,watch_1
26195826585629,0.22013968,0.30987054,7.070193,0.18203771,-0.15699224,-0.12140937,-91.05,6.15,51.937504,watch_1
26195819447504,-0.6652047,0.051445685,5.9407806,-0.15638138,0.03970621,-0.15073088,-91.05,6.15,51.937504,watch_1
26195814484744,-0.6652047,0.051445685,5.9407806,-0.15638138,0.03970621,-0.15073088,-91.05,6.15,51.937504,watch_1
26195836585577,-0.6652047,0.051445685,5.9407806,-0.15638138,0.03970621,-0.15073088,-89.53125,6.3562503,52.10625,watch_1
26195846585525,-0.6652047,0.051445685,5.9407806,-0.15638138,0.03970621,-0.15073088,-91.14375,5.4375,51.562504,watch_1
26195833557765,-0.0047856453,-0.30269206,4.4428735,-0.6035344,0.36712974,-0.3291034,-91.14375,5.4375,51.562504,watch_1
26195838520525,-0.0047856453,-0.30269206,4.4428735,-0.6035344,0.36712974,-0.3291034,-91.14375,5.4375,51.562504,watch_1
26195856585473,-0.0047856453,-0.30269206,4.4428735,-0.6035344,0.36712974,-0.3291034,-91.200005,4.8562503,52.350002,watch_1
26195866585421,-0.0047856453,-0.30269206,4.4428735,-0.6035344,0.36712974,-0.3291034,-90.65625,5.9625,49.968754,watch_1
26195857594536,-0.148355,-0.27876383,5.232505,-1.1533127,0.4331031,-0.2716821,-90.65625,5.9625,49.968754,watch_1
26195852631775,-0.148355,-0.27876383,5.232505,-1.1533127,0.4331031,-0.2716821,-90.65625,5.9625,49.968754,watch_1
26195876585369,-0.148355,-0.27876383,5.232505,-1.1533127,0.4331031,-0.2716821,-90.168755,7.5750003,50.456253,watch_1
26195876667504,-0.57427746,1.1569297,7.845467,-1.1533127,0.4331031,-0.2716821,-90.168755,7.5750003,50.456253,watch_1
26195871704744,-0.57427746,1.1569297,7.845467,-1.7043127,0.48808095,-0.092087865,-90.168755,7.5750003,50.456253,watch_1
26195886585317,-0.57427746,1.1569297,7.845467,-1.7043127,0.48808095,-0.092087865,-90.262505,7.3500004,47.568752,watch_1
26195896585265,-0.57427746,1.1569297,7.845467,-1.7043127,0.48808095,-0.092087865,-89.418755,10.087501,43.7625,watch_1
26195890778754,1.0719845,0.8171489,11.23849,-1.5687008,-0.19364414,0.020311253,-89.418755,10.087501,43.7625,watch_1
26195895741515,1.0719845,0.8171489,11.23849,-1.5687008,-0.19364414,0.020311253,-89.418755,10.087501,43.7625,watch_1
26195906585213,1.0719845,0.8171489,11.23849,-1.5687008,-0.19364414,0.020311253,-87.43125,13.650001,41.30625,watch_1
26195916585161,1.0719845,0.8171489,11.23849,-1.5687008,-0.19364414,0.020311253,-88.387505,14.512501,41.550003,watch_1
26195926585109,1.3208381,1.3914263,24.016163,0.867428,-1.3225223,0.10949751,-89.625,12.637501,42.16875,watch_1
26195909851775,1.3208381,1.3914263,24.016163,0.867428,-1.3225223,0.10949751,-89.625,12.637501,42.16875,watch_1
26195914814536,1.3208381,1.3914263,24.016163,0.867428,-1.3225223,0.10949751,-89.625,12.637501,42.16875,watch_1
26195936585056,1.3208381,1.3914263,24.016163,0.867428,-1.3225223,0.10949751,-90.05625,13.200001,39.881252,watch_1
26195933888546,-0.3062813,-3.7100716,8.525029,0.7367029,0.18509203,0.1962403,-90.05625,13.200001,39.881252,watch_1
26195928925786,-0.3062813,-3.7100716,8.525029,0.7367029,0.18509203,0.1962403,-90.05625,13.200001,39.881252,watch_1
26195946585004,-0.3062813,-3.7100716,8.525029,0.7367029,0.18509203,0.1962403,-88.9875,11.75625,41.025,watch_1
26195956584952,-0.3062813,-3.7100716,8.525029,0.7367029,0.18509203,0.1962403,-89.756256,12.76875,41.7,watch_1
26195947968754,0.7752745,-0.5419743,11.003993,0.08796453,0.054366965,0.1547015,-89.756256,12.76875,41.7,watch_1
26195952931515,0.7752745,-0.5419743,11.003993,0.08796453,0.054366965,0.1547015,-89.756256,12.76875,41.7,watch_1
26195966584900,0.7752745,-0.5419743,11.003993,0.08796453,0.054366965,0.1547015,-90.1875,13.012501,41.49375,watch_1
26195976584848,0.7752745,-0.5419743,11.003993,0.08796453,0.054366965,0.1547015,-89.925,13.087501,39.768753,watch_1
26195967041775,0.93320084,0.28594232,10.625927,-0.11362085,-0.3280344,0.15225805,-89.925,13.087501,39.768753,watch_1
26195972004536,0.93320084,0.28594232,10.625927,-0.11362085,-0.3280344,0.15225805,-89.925,13.087501,39.768753,watch_1
26195986584796,0.93320084,0.28594232,10.625927,-0.11362085,-0.3280344,0.15225805,-89.475006,12.825001,40.725002,watch_1
26195996584744,0.93320084,0.28594232,10.625927,-0.11362085,-0.3280344,0.15225805,-90.168755,13.293751,41.025,watch_1
26195991078546,1.0767702,0.951147,10.712069,-0.2687805,-0.21074834,-0.055435978,-90.168755,13.293751,41.025,watch_1
26195986115786,1.0767702,0.951147,10.712069,-0.2687805,-0.21074834,-0.055435978,-90.168755,13.293751,41.025,watch_1
26196006584692,1.0767702,0.951147,10.712069,-0.2687805,-0.21074834,-0.055435978,-91.443756,11.137501,41.8125,watch_1
26196016584640,1.0767702,0.951147,10.712069,-0.2687805,-0.21074834,-0.055435978,-89.850006,10.3125,44.11875,watch_1
26196010151515,0.32063824,1.0468599,12.851253,-0.3188714,-0.048258316,0.008093959,-89.850006,10.3125,44.11875,watch_1
26196005188754,0.32063824,1.0468599,12.851253,-0.3188714,-0.048258316,0.008093959,-89.850006,10.3125,44.11875,watch_1
26196026584588,0.32063824,1.0468599,12.851253,-0.3188714,-0.048258316,0.008093959,-91.14375,10.856251,43.18125,watch_1
26196036584536,0.32063824,1.0468599,12.851253,-0.3188714,-0.048258316,0.008093959,-91.818756,11.325001,44.081253,watch_1
26196029225525,-0.31585258,0.2428715,11.444272,-0.0048869182,-0.05070178,0.087506376,-91.818756,11.325001,44.081253,watch_1
26196024262765,-0.31585258,0.2428715,11.444272,-0.0048869182,-0.05070178,0.087506376,-91.818756,11.325001,44.081253,watch_1
26196046584484,-0.31585258,0.2428715,11.444272,-0.0048869182,-0.05070178,0.087506376,-91.725006,10.931251,43.256252,watch_1
26196056584431,-0.31585258,0.2428715,11.444272,-0.0048869182,-0.05070178,0.087506376,-92.26875,8.418751,45.1875,watch_1
26196048298546,0.29671,-0.9391829,10.3340025,0.8600976,-0.032375835,0.052076224,-92.26875,8.418751,45.1875,watch_1
26196043335786,0.29671,-0.9391829,10.3340025,0.8600976,-0.032375835,0.052076224,-92.26875,8.418751,45.1875,watch_1
26196066584379,0.29671,-0.9391829,10.3340025,0.8600976,-0.032375835,0.052076224,-92.887505,9.75,44.550003,watch_1
26196076584327,0.29671,-0.9391829,10.3340025,0.8600976,-0.032375835,0.052076224,-93.525,6.20625,47.5875,watch_1
26196067372504,-0.12921242,-1.1497513,8.118249,0.7061597,-0.09468404,-0.017562363,-93.525,6.20625,47.5875,watch_1
26196062409744,-0.12921242,-1.1497513,8.118249,0.7061597,-0.09468404,-0.017562363,-93.525,6.20625,47.5875,watch_1
26196086584275,-0.12921242,-1.1497513,8.118249,0.7061597,-0.09468404,-0.017562363,-91.575005,9.01875,47.4,watch_1
26196086445525,0.023928227,-0.3361916,8.266604,0.4581486,-0.17653993,-0.0016798781,-91.575005,9.01875,47.4,watch_1
26196081482765,0.023928227,-0.3361916,8.266604,0.4581486,-0.17653993,-0.0016798781,-92.662506,8.606251,47.025,watch_1
26196096584223,0.023928227,-0.3361916,8.266604,0.4581486,-0.17653993,-0.0016798781,-92.662506,8.606251,47.025,watch_1
26196106584171,0.023928227,-0.3361916,8.266604,0.4581486,-0.17653993,-0.0016798781,-92.15625,9.075001,47.756252,watch_1
26196105519536,0.8662018,0.56350976,8.027322,0.4581486,-0.17653993,-0.0016798781,-92.15625,9.075001,47.756252,watch_1
26196100556775,0.8662018,0.56350976,8.027322,0.21380267,0.06169734,0.074067354,-92.15625,9.075001,47.756252,watch_1
26196116584119,0.8662018,0.56350976,8.027322,0.21380267,0.06169734,0.074067354,-92.025,7.05,50.737503,watch_1
26196126584067,0.8662018,0.56350976,8.027322,0.21380267,0.06169734,0.074067354,-91.51875,9.28125,48.675003,watch_1
26196124562504,1.0911272,0.6161518,6.8452673,0.25045455,0.116675176,0.14492767,-91.51875,9.28125,48.675003,watch_1
26196119599744,1.0911272,0.6161518,6.8452673,0.25045455,0.116675176,0.14492767,-91.51875,9.28125,48.675003,watch_1
26196136584015,1.0911272,0.6161518,6.8452673,0.25045455,0.116675176,0.14492767,-91.012505,9.450001,50.175003,watch_1
26196146583963,1.0911272,0.6161518,6.8452673,0.25045455,0.116675176,0.14492767,-90.84375,8.512501,48.975002,watch_1
26196143635525,0.9236295,0.15672988,5.313861,0.124616414,0.03604102,0.09483676,-90.84375,8.512501,48.975002,watch_1
26196156583911,0.9236295,0.15672988,5.313861,0.124616414,0.03604102,0.09483676,-91.725006,7.2562504,49.143753,watch_1
26196138672765,0.9236295,0.15672988,5.313861,0.124616414,0.03604102,0.09483676,-91.725006,7.2562504,49.143753,watch_1
26196166583859,0.9236295,0.15672988,5.313861,0.124616414,0.03604102,0.09483676,-92.662506,7.0125003,48.91875,watch_1
26196162708546,0.8757731,0.25722843,4.284947,-0.17837252,0.0006108648,0.0129808765,-92.662506,7.0125003,48.91875,watch_1
26196176583806,0.8757731,0.25722843,4.284947,-0.17837252,0.0006108648,0.0129808765,-91.18125,8.19375,48.675003,watch_1
26196157745786,0.8757731,0.25722843,4.284947,-0.17837252,0.0006108648,0.0129808765,-91.18125,8.19375,48.675003,watch_1
26196181782504,0.26799613,-0.096909314,4.5338006,-0.17837252,0.0006108648,0.0129808765,-90.7125,9.975,47.25,watch_1
26196186583754,0.26799613,-0.096909314,4.5338006,-0.17837252,0.0006108648,0.0129808765,-90.7125,9.975,47.25,watch_1
26196196583702,0.26799613,-0.096909314,4.5338006,-0.93828833,0.076358095,0.041080657,-90.9375,7.9687505,46.987503,watch_1
26196176819744,0.26799613,-0.096909314,4.5338006,-0.93828833,0.076358095,0.041080657,-90.9375,7.9687505,46.987503,watch_1
26196206583650,0.26799613,-0.096909314,4.5338006,-0.93828833,0.076358095,0.041080657,-89.7375,11.306251,44.025,watch_1
26196200855525,1.3399807,1.0516455,17.215761,-1.7910556,0.009162972,-0.0029016077,-89.7375,11.306251,44.025,watch_1
26196195892765,1.3399807,1.0516455,17.215761,-1.7910556,0.009162972,-0.0029016077,-89.7375,11.306251,44.025,watch_1
26196216583598,1.3399807,1.0516455,17.215761,-1.7910556,0.009162972,-0.0029016077,-90.5625,13.481251,42.99375,watch_1
26196226583546,1.3399807,1.0516455,17.215761,-1.7910556,0.009162972,-0.0029016077,-90.543755,12.375001,42.675003,watch_1
26196219929536,-0.20578274,1.3387842,18.862022,0.65851223,0.79106987,0.019089524,-89.606255,11.85,39.787502,watch_1
26196236583494,-0.20578274,1.3387842,18.862022,0.65851223,0.79106987,0.019089524,-89.606255,11.85,39.787502,watch_1
26196214966775,-0.20578274,1.3387842,18.862022,0.65851223,0.79106987,0.019089524,-89.606255,11.85,39.787502,watch_1
26196239002504,-0.124426775,-3.3367913,8.702098,0.93828833,-0.12156209,-0.059101168,-90.168755,9.1875,41.287502,watch_1
26196234039744,-0.124426775,-3.3367913,8.702098,0.93828833,-0.12156209,-0.059101168,-90.168755,9.1875,41.287502,watch_1
26196246583442,-0.124426775,-3.3367913,8.702098,0.93828833,-0.12156209,-0.059101168,-90.168755,9.1875,41.287502,watch_1
26196256583390,-0.124426775,-3.3367913,8.702098,0.93828833,-0.12156209,-0.059101168,-90.61875,12.13125,40.21875,watch_1
26196253113754,0.71306115,-0.57547385,10.386645,0.037873615,-0.025045456,0.07651082,-89.700005,10.837501,40.443752,watch_1
26196266583338,0.71306115,-0.57547385,10.386645,0.037873615,-0.025045456,0.07651082,-89.700005,10.837501,40.443752,watch_1
26196258076515,0.71306115,-0.57547385,10.386645,0.037873615,-0.025045456,0.07651082,-89.700005,10.837501,40.443752,watch_1
26196276583286,0.71306115,-0.57547385,10.386645,0.037873615,-0.025045456,0.07651082,-89.925,11.493751,41.081253,watch_1
26196272156775,0.6125626,0.654437,10.535,-0.112399116,-0.25106543,0.028863361,-91.275,11.306251,41.9625,watch_1
26196286583234,0.6125626,0.654437,10.535,-0.112399116,-0.25106543,0.028863361,-91.275,11.306251,41.9625,watch_1
26196277119536,0.6125626,0.654437,10.535,-0.112399116,-0.25106543,0.028863361,-91.275,11.306251,41.9625,watch_1
26196296583181,0.6125626,0.654437,10.535,-0.112399116,-0.25106543,0.028863361,-89.49375,9.675,42.46875,watch_1
26196296192504,-0.16271193,0.77407813,10.243075,-0.28954992,-0.15821397,-0.09453133,-89.49375,9.675,42.46875,watch_1
26196291229744,-0.16271193,0.77407813,10.243075,-0.28954992,-0.15821397,-0.09453133,-91.78125,10.9875,40.2,watch_1
26196306583129,-0.16271193,0.77407813,10.243075,-0.28954992,-0.15821397,-0.09453133,-91.78125,10.9875,40.2,watch_1
26196316583077,-0.16271193,0.77407813,10.243075,-0.28954992,-0.15821397,-0.09453133,-89.887505,11.45625,42.84375,watch_1
26196310303754,-0.28235307,0.80757767,12.635899,-0.57909983,-0.028710645,-0.06276636,-90.28125,11.981251,42.45,watch_1
26196326583025,-0.28235307,0.80757767,12.635899,-0.57909983,-0.028710645,-0.06276636,-90.28125,11.981251,42.45,watch_1
26196315266515,-0.28235307,0.80757767,12.635899,-0.57909983,-0.028710645,-0.06276636,-90.28125,11.981251,42.45,watch_1
26196336582973,-0.28235307,0.80757767,12.635899,-0.57909983,-0.028710645,-0.06276636,-91.18125,12.01875,42.206253,watch_1
26196329376775,0.124426775,0.64965135,12.559328,-0.4581486,0.12278382,-0.061544627,-91.275,10.9875,43.0125,watch_1
26196334339536,0.124426775,0.64965135,12.559328,-0.4581486,0.12278382,-0.061544627,-91.275,10.9875,43.0125,watch_1
26196346582921,0.124426775,0.64965135,12.559328,-0.4581486,0.12278382,-0.061544627,-91.275,10.9875,43.0125,watch_1
26196356582869,0.124426775,0.64965135,12.559328,-0.4581486,0.12278382,-0.061544627,-93.09375,10.743751,43.125,watch_1
26196353413546,0.6939186,-0.7046863,9.778868,-0.4581486,0.12278382,-0.061544627,-93.09375,10.743751,43.125,watch_1
26196348450786,0.6939186,-0.7046863,9.778868,0.3921752,0.08491021,0.00076358096,-93.09375,10.743751,43.125,watch_1
26196366582817,0.6939186,-0.7046863,9.778868,0.3921752,0.08491021,0.00076358096,-91.05,11.400001,44.8875,watch_1
26196376582765,0.6939186,-0.7046863,9.778868,0.3921752,0.08491021,0.00076358096,-90.9,9.84375,46.0875,watch_1
26196372486515,0.61734825,-1.288535,8.682955,0.8002329,-0.10445788,0.010537418,-90.99375,10.2375,46.4625,watch_1
26196386582713,0.61734825,-1.288535,8.682955,0.8002329,-0.10445788,0.010537418,-90.99375,10.2375,46.4625,watch_1
26196367523754,0.61734825,-1.288535,8.682955,0.8002329,-0.10445788,0.010537418,-90.99375,10.2375,46.4625,watch_1
26196396582661,0.85184485,-0.5371887,8.960523,0.8002329,-0.10445788,0.010537418,-91.21875,8.212501,47.362503,watch_1
26196391560525,0.85184485,-0.5371887,8.960523,0.8002329,-0.10445788,0.010537418,-91.21875,8.212501,47.362503,watch_1
26196386597765,0.85184485,-0.5371887,8.960523,0.7061597,-0.28038692,0.0923933,-91.21875,8.212501,47.362503,watch_1
26196406582609,0.85184485,-0.5371887,8.960523,0.7061597,-0.28038692,0.0923933,-92.3625,8.625,47.34375,watch_1
26196416582556,0.85184485,-0.5371887,8.960523,0.7061597,-0.28038692,0.0923933,-91.51875,8.962501,50.456253,watch_1
26196410633546,1.0336994,0.3290131,8.520244,0.5009091,-0.17653993,0.15225805,-91.40625,7.275,50.193752,watch_1
26196405670786,1.0336994,0.3290131,8.520244,0.5009091,-0.17653993,0.15225805,-91.40625,7.275,50.193752,watch_1
26196426582504,1.0336994,0.3290131,8.520244,0.5009091,-0.17653993,0.15225805,-91.40625,7.275,50.193752,watch_1
26196436582452,1.0336994,0.3290131,8.520244,0.5009091,-0.17653993,0.15225805,-91.2375,6.0,51.075,watch_1
26196429707504,0.7513463,0.6831509,7.960323,0.4630355,-0.0018325944,0.075289086,-91.2375,6.0,51.075,watch_1
26196424744744,0.7513463,0.6831509,7.960323,0.4630355,-0.0018325944,0.075289086,-91.2375,6.0,51.075,watch_1
26196446582400,0.7513463,0.6831509,7.960323,0.4630355,-0.0018325944,0.075289086,-90.3,6.2625003,51.300003,watch_1
26196456582348,0.7513463,0.6831509,7.960323,0.4630355,-0.0018325944,0.075289086,-92.15625,7.1625004,51.131252,watch_1
26196448750525,0.82313097,0.75493556,7.252047,0.3762927,0.21197008,-0.017562363,-92.15625,7.1625004,51.131252,watch_1
26196443787765,0.82313097,0.75493556,7.252047,0.3762927,0.21197008,-0.017562363,-92.15625,7.1625004,51.131252,watch_1
26196466582296,0.82313097,0.75493556,7.252047,0.3762927,0.21197008,-0.017562363,-90.28125,8.137501,49.66875,watch_1
26196476582244,0.4881358,0.50129634,5.7637115,0.3762927,0.21197008,-0.017562363,-91.33125,6.9,49.0875,watch_1
26196467823546,0.4881358,0.50129634,5.7637115,0.13927718,0.1838703,-0.021227552,-91.33125,6.9,49.0875,watch_1
26196462860786,0.4881358,0.50129634,5.7637115,0.13927718,0.1838703,-0.021227552,-91.33125,6.9,49.0875,watch_1
26196486582192,0.4881358,0.50129634,5.7637115,0.13927718,0.1838703,-0.021227552,-91.443756,8.08125,51.7125,watch_1
26196496582140,0.08135597,0.38644084,4.610371,-0.04886918,-0.055588696,-0.055435978,-91.18125,6.6000004,50.006252,watch_1
26196481934744,0.08135597,0.38644084,4.610371,-0.04886918,-0.055588696,-0.055435978,-91.18125,6.6000004,50.006252,watch_1
26196486897504,0.08135597,0.38644084,4.610371,-0.04886918,-0.055588696,-0.055435978,-91.18125,6.6000004,50.006252,watch_1
26196506582088,0.08135597,0.38644084,4.610371,-0.04886918,-0.055588696,-0.055435978,-90.356255,7.425,49.725002,watch_1
26196505970525,0.22971097,0.20458634,4.438088,-0.5216785,-0.21441354,-0.13362667,-90.356255,7.425,49.725002,watch_1
26196516582036,0.22971097,0.20458634,4.438088,-0.5216785,-0.21441354,-0.13362667,-90.61875,8.15625,47.5875,watch_1
26196501007765,0.22971097,0.20458634,4.438088,-0.5216785,-0.21441354,-0.13362667,-90.61875,8.15625,47.5875,watch_1
26196526581984,0.22971097,0.20458634,4.438088,-0.5216785,-0.21441354,-0.13362667,-90.28125,8.94375,45.225002,watch_1
26196525044536,0.8470592,0.17108682,6.8931236,-1.7311908,-0.1594357,-0.17883067,-90.28125,8.94375,45.225002,watch_1
26196520081775,0.8470592,0.17108682,6.8931236,-1.7311908,-0.1594357,-0.17883067,-90.01875,10.14375,43.96875,watch_1
26196536581931,0.8470592,0.17108682,6.8931236,-1.7311908,-0.1594357,-0.17883067,-90.01875,10.14375,43.96875,watch_1
26196546581879,0.8470592,0.17108682,6.8931236,-1.7311908,-0.1594357,-0.17883067,-89.3625,13.500001,42.99375,watch_1
26196539154744,0.8470592,0.17108682,6.8931236,-0.51801336,1.265101,0.026419902,-89.3625,13.500001,42.99375,watch_1
26196544117504,1.3543376,2.5208387,27.088547,-0.51801336,1.265101,0.026419902,-89.64375,11.25,41.1375,watch_1
26196556581827,1.3543376,2.5208387,27.088547,-0.51801336,1.265101,0.026419902,-89.64375,11.25,41.1375,watch_1
26196566581775,1.3543376,2.5208387,27.088547,-0.51801336,1.265101,0.026419902,-89.193756,11.306251,41.475002,watch_1
26196558228754,-0.8709874,-3.178865,10.802996,1.2498293,0.15332706,0.13271037,-89.193756,11.306251,41.475002,watch_1
26196563191515,-0.8709874,-3.178865,10.802996,1.2498293,0.15332706,0.13271037,-89.193756,11.306251,41.475002,watch_1
26196576581723,-0.8709874,-3.178865,10.802996,1.2498293,0.15332706,0.13271037,-89.4375,10.425,41.4,watch_1
26196586581671,-0.8709874,-3.178865,10.802996,1.2498293,0.15332706,0.13271037,-89.25,9.13125,42.84375,watch_1
26196582264536,0.0047856453,-0.6472585,8.548957,1.2498293,0.15332706,0.13271037,-89.25,9.13125,42.84375,watch_1
26196577301775,0.0047856453,-0.6472585,8.548957,-0.041538805,0.04703659,0.06551525,-89.25,9.13125,42.84375,watch_1
26196596581619,0.0047856453,-0.6472585,8.548957,-0.041538805,0.04703659,0.06551525,-89.4375,8.512501,44.775,watch_1
26196606581567,0.0047856453,-0.6472585,8.548957,-0.041538805,0.04703659,0.06551525,-89.100006,7.7250004,43.725002,watch_1
26196601338546,0.30149564,0.66400826,11.003993,-0.041538805,0.04703659,0.06551525,-89.100006,7.7250004,43.725002,watch_1
26196596375786,0.30149564,0.66400826,11.003993,-0.07941242,-0.06291907,0.12782346,-89.100006,7.7250004,43.725002,watch_1
26196616581515,0.30149564,0.66400826,11.003993,-0.07941242,-0.06291907,0.12782346,-88.162506,12.262501,42.375,watch_1
26196626581463,0.30149564,0.66400826,11.003993,-0.07941242,-0.06291907,0.12782346,-88.068756,10.275001,43.59375,watch_1
26196615418754,0.2009971,0.64965135,9.041879,-0.13072506,-0.13500112,0.09728022,-88.068756,10.275001,43.59375,watch_1
26196620381515,0.2009971,0.64965135,9.041879,-0.13072506,-0.13500112,0.09728022,-88.068756,10.275001,43.59375,watch_1
26196636581411,0.2009971,0.64965135,9.041879,-0.13072506,-0.13500112,0.09728022,-89.4,10.70625,41.081253,watch_1
26196639454536,0.3062813,0.50129634,10.343575,-0.13072506,-0.13500112,0.09728022,-89.4,10.70625,41.081253,watch_1
26196646581359,0.3062813,0.50129634,10.343575,-0.194255,-0.06536253,0.039858926,-88.537506,8.793751,43.40625,watch_1
26196656581306,0.3062813,0.50129634,10.343575,-0.194255,-0.06536253,0.039858926,-88.537506,8.793751,43.40625,watch_1
26196634491775,0.3062813,0.50129634,10.343575,-0.194255,-0.06536253,0.039858926,-88.537506,8.793751,43.40625,watch_1
26196666581254,0.2105684,0.18065812,9.448658,-0.22235478,-0.13744457,0.0056504994,-88.443756,9.84375,41.568752,watch_1
26196653565786,0.2105684,0.18065812,9.448658,-0.22235478,-0.13744457,0.0056504994,-88.443756,9.84375,41.568752,watch_1
26196658528546,0.2105684,0.18065812,9.448658,-0.22235478,-0.13744457,0.0056504994,-88.443756,9.84375,41.568752,watch_1
26196676581202,0.2105684,0.18065812,9.448658,-0.22235478,-0.13744457,0.0056504994,-88.78125,10.44375,43.800003,watch_1
26196686581150,0.2105684,0.18065812,9.448658,-0.22235478,-0.13744457,0.0056504994,-87.787506,9.84375,45.412502,watch_1
26196677601515,0.44506502,0.02751746,9.826724,-0.22235478,-0.13744457,0.0056504994,-87.787506,9.84375,45.412502,watch_1
26196672638754,0.44506502,0.02751746,9.826724,-0.07941242,-0.06902772,-0.02367101,-87.787506,9.84375,45.412502,watch_1
26196696581098,0.44506502,0.02751746,9.826724,-0.07941242,-0.06902772,-0.02367101,-88.762505,10.743751,43.18125,watch_1
26196696675525,0.3397808,-0.21655045,9.774082,-0.09529491,-0.06780599,0.03375028,-88.762505,10.743751,43.18125,watch_1
26196691712765,0.3397808,-0.21655045,9.774082,-0.09529491,-0.06780599,0.03375028,-91.856255,12.95625,40.425003,watch_1
26196706581046,0.3397808,-0.21655045,9.774082,-0.09529491,-0.06780599,0.03375028,-91.856255,12.95625,40.425003,watch_1
26196716580994,0.3397808,-0.21655045,9.774082,-0.09529491,-0.06780599,0.03375028,-89.86875,13.35,40.48125,watch_1
26196715748546,0.32542387,-0.23090738,9.587442,-0.09529491,-0.06780599,0.03375028,-89.86875,13.35,40.48125,watch_1
26196710785786,0.32542387,-0.23090738,9.587442,-0.017104214,-0.032375835,0.009315688,-89.943756,12.618751,41.550003,watch_1
26196726580942,0.32542387,-0.23090738,9.587442,-0.017104214,-0.032375835,0.009315688,-89.943756,12.618751,41.550003,watch_1
26196736580890,0.32542387,-0.23090738,9.587442,-0.017104214,-0.032375835,0.009315688,-90.637505,11.681251,40.987503,watch_1
26196729859744,0.32542387,-0.23090738,9.587442,0.03176497,-0.051923506,-0.011453714,-90.637505,11.681251,40.987503,watch_1
26196734822504,0.45942193,-0.0059820567,9.951151,0.03176497,-0.051923506,-0.011453714,-90.637505,11.681251,40.987503,watch_1
26196746580838,0.45942193,-0.0059820567,9.951151,0.03176497,-0.051923506,-0.011453714,-89.2125,10.856251,42.54375,watch_1
26196756580786,0.45942193,-0.0059820567,9.951151,0.03176497,-0.051923506,-0.011453714,-89.193756,12.4125,42.24375,watch_1
26196753895525,0.37328035,0.07058827,9.649655,0.03176497,-0.051923506,-0.011453714,-89.193756,12.4125,42.24375,watch_1
26196748932765,0.37328035,0.07058827,9.649655,0.05253437,-0.06169734,0.016646065,-89.193756,12.4125,42.24375,watch_1
26196766580734,0.37328035,0.07058827,9.649655,0.05253437,-0.06169734,0.016646065,-89.11875,13.462501,40.10625,watch_1
26196776580681,0.37328035,0.07058827,9.649655,0.05253437,-0.06169734,0.016646065,-90.20625,11.118751,43.425003,watch_1
26196768005786,0.44027936,0.24765715,9.888938,0.07208204,-0.03604102,0.044745844,-90.20625,11.118751,43.425003,watch_1
26196772968546,0.44027936,0.24765715,9.888938,0.07208204,-0.03604102,0.044745844,-90.20625,11.118751,43.425003,watch_1
26196786580629,0.44027936,0.24765715,9.888938,0.07208204,-0.03604102,0.044745844,-89.193756,9.39375,44.86875,watch_1
26196796580577,0.44027936,0.24765715,9.888938,0.07208204,-0.03604102,0.044745844,-89.231255,12.1125,42.5625,watch_1
26196792011515,0.4019942,0.10887343,9.783653,0.07208204,-0.03604102,0.044745844,-89.231255,12.1125,42.5625,watch_1
26196806580525,0.4019942,0.10887343,9.783653,0.02932151,0.01282816,0.026419902,-88.8375,11.925,40.443752,watch_1
26196787048754,0.4019942,0.10887343,9.783653,0.02932151,0.01282816,0.026419902,-88.8375,11.925,40.443752,watch_1
26196816580473,0.4019942,0.10887343,9.783653,0.02932151,0.01282816,0.026419902,-90.01875,12.056251,40.875,watch_1
26196811085525,0.3684947,-0.010767702,9.83151,0.0061086477,0.010384701,0.009315688,-90.01875,12.056251,40.875,watch_1
26196806122765,0.3684947,-0.010767702,9.83151,0.0061086477,0.010384701,0.009315688,-90.01875,12.056251,40.875,watch_1
26196826580421,0.3684947,-0.010767702,9.83151,0.0061086477,0.010384701,0.009315688,-89.90625,11.475,42.393753,watch_1
26196836580369,0.3684947,-0.010767702,9.83151,0.0061086477,0.010384701,0.009315688,-90.80625,11.512501,41.568752,watch_1
26196830158546,0.44027936,0.041874398,10.003794,-0.013439025,-0.07269291,-0.0016798781,-90.80625,11.512501,41.568752,watch_1
26196825195786,0.44027936,0.041874398,10.003794,-0.013439025,-0.07269291,-0.0016798781,-90.80625,11.512501,41.568752,watch_1
26196846580317,0.44027936,0.041874398,10.003794,-0.013439025,-0.07269291,-0.0016798781,-89.850006,12.225,40.29375,watch_1
26196856580265,0.44027936,0.041874398,10.003794,-0.013439025,-0.07269291,-0.0016798781,-90.131256,11.0625,40.237503,watch_1
26196844269744,0.4354937,0.07058827,9.735797,-0.15760311,0.07147118,-0.0029016077,-90.131256,11.0625,40.237503,watch_1
26196849232504,0.4354937,0.07058827,9.735797,-0.15760311,0.07147118,-0.0029016077,-90.131256,11.0625,40.237503,watch_1
26196866580213,0.4354937,0.07058827,9.735797,-0.15760311,0.07147118,-0.0029016077,-91.106255,11.475,41.100002,watch_1
26196876580161,0.4354937,0.07058827,9.735797,-0.15760311,0.07147118,-0.0029016077,-89.9625,10.743751,42.9,watch_1
26196868305525,0.43070808,-0.034695927,9.620942,-0.15515965,0.16676609,-0.011453714,-89.9625,10.743751,42.9,watch_1
26196863342765,0.43070808,-0.034695927,9.620942,-0.15515965,0.16676609,-0.011453714,-89.9625,10.743751,42.9,watch_1
26196886580109,0.43070808,-0.034695927,9.620942,-0.15515965,0.16676609,-0.011453714,-90.01875,12.075001,40.143753,watch_1
26196887379536,0.29192436,0.104087785,9.850653,0.073303774,0.29749113,-0.010231985,-90.1875,11.75625,40.74375,watch_1
26196882416775,0.29192436,0.104087785,9.850653,0.073303774,0.29749113,-0.010231985,-90.1875,11.75625,40.74375,watch_1
26196896580056,0.29192436,0.104087785,9.850653,0.073303774,0.29749113,-0.010231985,-90.1875,11.75625,40.74375,watch_1
26196906580004,0.29192436,0.104087785,9.850653,0.073303774,0.29749113,-0.010231985,-88.425,12.975,40.3875,watch_1
26196916579952,0.15314065,0.02751746,9.87458,0.073303774,0.29749113,-0.010231985,-87.61875,11.925,41.8875,watch_1
26196906452504,0.15314065,0.02751746,9.87458,0.073303774,0.29749113,-0.010231985,-87.61875,11.925,41.8875,watch_1
26196901489744,0.15314065,0.02751746,9.87458,0.0061086477,0.2376264,0.0044287695,-87.61875,11.925,41.8875,watch_1
26196926579900,0.15314065,0.02751746,9.87458,0.0061086477,0.2376264,0.0044287695,-89.100006,12.31875,40.36875,watch_1
26196925526515,0.18185452,-0.025124637,9.793225,0.0061086477,0.2376264,0.0044287695,-89.100006,12.31875,40.36875,watch_1
26196920563754,0.18185452,-0.025124637,9.793225,-0.015882485,-0.018936807,0.0019853106,-89.100006,12.31875,40.36875,watch_1
26196936579848,0.18185452,-0.025124637,9.793225,-0.015882485,-0.018936807,0.0019853106,-88.55625,11.681251,40.5,watch_1
26196946579796,0.18185452,-0.025124637,9.793225,-0.015882485,-0.018936807,0.0019853106,-87.975006,12.712501,42.206253,watch_1
26196944599536,0.28235307,-0.04426722,9.702297,0.0012217296,-0.1545488,-0.004123337,-87.975006,12.712501,42.206253,watch_1
26196939636775,0.28235307,-0.04426722,9.702297,0.0012217296,-0.1545488,-0.004123337,-87.975006,12.712501,42.206253,watch_1
26196956579744,0.28235307,-0.04426722,9.702297,0.0012217296,-0.1545488,-0.004123337,-89.662506,12.375001,41.175003,watch_1
26196966579692,0.28235307,-0.04426722,9.702297,0.0012217296,-0.1545488,-0.004123337,-89.943756,13.89375,41.1375,watch_1
26196963642504,0.3684947,0.02751746,9.841082,0.0012217296,-0.1545488,-0.004123337,-89.943756,13.89375,41.1375,watch_1
26196958679744,0.3684947,0.02751746,9.841082,-0.010995566,-0.15577053,-0.007788526,-89.606255,11.53125,41.11875,watch_1
26196976579640,0.3684947,0.02751746,9.841082,-0.010995566,-0.15577053,-0.007788526,-89.606255,11.53125,41.11875,watch_1
26196986579588,0.3684947,0.02751746,9.841082,-0.010995566,-0.15577053,-0.007788526,-91.275,11.64375,39.16875,watch_1
26196982716515,0.37328035,0.08015956,9.72144,0.0012217296,-0.064140804,-0.0029016077,-91.275,11.64375,39.16875,watch_1
26196977753754,0.37328035,0.08015956,9.72144,0.0012217296,-0.064140804,-0.0029016077,-91.275,11.64375,39.16875,watch_1
26196996579536,0.37328035,0.08015956,9.72144,0.0012217296,-0.064140804,-0.0029016077,-90.24375,12.58125,41.081253,watch_1
26197006579484,0.37328035,0.08015956,9.72144,0.0012217296,-0.064140804,-0.0029016077,-89.606255,11.85,39.787502,watch_1
26197001789536,0.3589234,0.03708875,9.845867,0.0012217296,-0.064140804,-0.0029016077,-89.606255,11.85,39.787502,watch_1
26196996826775,0.3589234,0.03708875,9.845867,-0.0061086477,0.043371398,0.0019853106,-89.64375,12.675,40.85625,watch_1
26197016579431,0.3589234,0.03708875,9.845867,-0.0061086477,0.043371398,0.0019853106,-89.64375,12.675,40.85625,watch_1
26197026579379,0.3589234,0.03708875,9.845867,-0.0061086477,0.043371398,0.0019853106,-89.287506,11.38125,43.350002,watch_1
26197020863546,0.29671,0.03708875,9.798011,-0.0061086477,0.043371398,0.0019853106,-89.287506,11.38125,43.350002,watch_1
26197015900786,0.29671,0.03708875,9.798011,-0.0048869182,0.0971275,0.00320704,-90.881256,12.056251,41.943752,watch_1
26197036579327,0.29671,0.03708875,9.798011,-0.0048869182,0.0971275,0.00320704,-90.881256,12.056251,41.943752,watch_1
26197046579275,0.29671,0.03708875,9.798011,-0.0048869182,0.0971275,0.00320704,-88.9875,11.418751,43.3875,watch_1
26197039936515,0.25842485,-0.025124637,9.817153,-0.0048869182,0.0971275,0.00320704,-88.9875,11.418751,43.3875,watch_1
26197034973754,0.25842485,-0.025124637,9.817153,-0.0061086477,0.028710645,0.00076358096,-88.9875,11.418751,43.3875,watch_1
26197056579223,0.25842485,-0.025124637,9.817153,-0.0061086477,0.028710645,0.00076358096,-90.28125,10.70625,42.43125,watch_1
26197066579171,0.25842485,-0.025124637,9.817153,-0.0061086477,0.028710645,0.00076358096,-88.725006,11.19375,42.412502,watch_1
26197059010525,0.29671,-0.05383851,9.798011,-0.008552107,-0.06536253,-0.0016798781,-88.725006,11.19375,42.412502,watch_1
26197054047765,0.29671,-0.05383851,9.798011,-0.008552107,-0.06536253,-0.0016798781,-88.725006,11.19375,42.412502,watch_1
26197076579119,0.29671,-0.05383851,9.798011,-0.008552107,-0.06536253,-0.0016798781,-89.9625,12.31875,42.16875,watch_1
26197086579067,0.29671,-0.05383851,9.798011,-0.008552107,-0.06536253,-0.0016798781,-90.168755,11.71875,42.3375,watch_1
26197078083546,0.33499518,0.02751746,9.802796,-0.008552107,-0.06536253,-0.0016798781,-90.168755,11.71875,42.3375,watch_1
26197073120786,0.33499518,0.02751746,9.802796,0.0036651888,-0.06902772,-0.0029016077,-90.168755,11.71875,42.3375,watch_1
26197096579015,0.33499518,0.02751746,9.802796,0.0036651888,-0.06902772,-0.0029016077,-89.006256,12.88125,41.34375,watch_1
26197092194744,0.34456646,0.032303106,9.745368,-0.0024434591,-0.017715078,-0.0016798781,-91.106255,11.475,41.53125,watch_1
26197097157504,0.34456646,0.032303106,9.745368,-0.0024434591,-0.017715078,-0.0016798781,-91.106255,11.475,41.53125,watch_1
26197106578963,0.34456646,0.032303106,9.745368,-0.0024434591,-0.017715078,-0.0016798781,-91.106255,11.475,41.53125,watch_1
26197116578911,0.34456646,0.032303106,9.745368,-0.0024434591,-0.017715078,-0.0016798781,-90.28125,10.70625,42.43125,watch_1
26197116230525,0.31585258,0.051445685,9.807582,-0.0036651888,0.01527162,-0.0004581486,-90.28125,10.70625,42.43125,watch_1
26197111267765,0.31585258,0.051445685,9.807582,-0.0036651888,0.01527162,-0.0004581486,-90.28125,10.70625,42.43125,watch_1
26197126578859,0.31585258,0.051445685,9.807582,-0.0036651888,0.01527162,-0.0004581486,-89.287506,11.700001,41.71875,watch_1
26197136578806,0.31585258,0.051445685,9.807582,-0.0036651888,0.01527162,-0.0004581486,-89.887505,11.775001,41.0625,watch_1
26197130310786,0.31106696,0.02751746,9.817153,-0.0024434591,0.011606431,-0.0004581486,-89.887505,11.775001,41.0625,watch_1
26197135273546,0.31106696,0.02751746,9.817153,-0.0024434591,0.011606431,-0.0004581486,-89.887505,11.775001,41.0625,watch_1
26197146578754,0.31106696,0.02751746,9.817153,-0.0024434591,0.011606431,-0.0004581486,-90.1875,11.7375,41.325,watch_1
26197156578702,0.31106696,0.02751746,9.817153,-0.0024434591,0.011606431,-0.0004581486,-90.168755,10.6125,41.006252,watch_1
26197154347504,0.3397808,-0.049052864,9.778868,-0.0024434591,0.011606431,-0.0004581486,-90.168755,10.6125,41.006252,watch_1
26197149384744,0.3397808,-0.049052864,9.778868,-0.010995566,-0.0140498895,-0.0016798781,-90.168755,10.6125,41.006252,watch_1
26197166578650,0.3397808,-0.049052864,9.778868,-0.010995566,-0.0140498895,-0.0016798781,-89.4,14.64375,42.0,watch_1
26197176578598,0.3397808,-0.049052864,9.778868,-0.010995566,-0.0140498895,-0.0016798781,-91.668755,11.981251,40.55625,watch_1
26197173420525,0.3397808,-0.0059820567,9.778868,-0.010995566,-0.0140498895,-0.0016798781,-91.668755,11.981251,40.55625,watch_1
26197168457765,0.3397808,-0.0059820567,9.778868,0.0012217296,-0.0140498895,-0.0016798781,-90.131256,11.0625,40.66875,watch_1
26197186578546,0.3397808,-0.0059820567,9.778868,0.0012217296,-0.0140498895,-0.0016798781,-90.131256,11.0625,40.66875,watch_1
26197196578494,0.3397808,-0.0059820567,9.778868,0.0012217296,-0.0140498895,-0.0016798781,-90.037506,10.481251,41.175003,watch_1
26197192494536,0.33499518,0.0035892338,9.807582,-0.0012217296,0.007941242,-0.0004581486,-90.037506,10.481251,41.175003,watch_1
26197187531775,0.33499518,0.0035892338,9.807582,-0.0012217296,0.007941242,-0.0004581486,-90.037506,10.481251,41.175003,watch_1
26197206578442,0.33499518,0.0035892338,9.807582,-0.0012217296,0.007941242,-0.0004581486,-89.700005,12.093751,41.193752,watch_1
26197216578390,0.33499518,0.0035892338,9.807582,-0.0012217296,0.007941242,-0.0004581486,-90.76875,11.94375,41.100002,watch_1
26197211567504,0.32063824,0.02751746,9.788439,-0.0012217296,0.007941242,-0.0004581486,-90.76875,11.94375,41.100002,watch_1
26197206604744,0.32063824,0.02751746,9.788439,-0.0012217296,0.007941242,-0.0004581486,-90.76875,11.94375,41.100002,watch_1
26197226578338,0.32063824,0.02751746,9.788439,-0.0012217296,0.007941242,-0.0004581486,-89.512505,12.543751,40.74375,watch_1
26197236578286,0.32063824,0.02751746,9.788439,-0.0012217296,0.007941242,-0.0004581486,-90.3,14.85,41.006252,watch_1
26197230641515,0.31585258,0.051445685,9.817153,0.0024434591,0.0006108648,-0.0004581486,-90.3,14.85,41.006252,watch_1
26197225678754,0.31585258,0.051445685,9.817153,0.0024434591,0.0006108648,-0.0004581486,-90.3,14.85,41.006252,watch_1
26197246578234,0.31585258,0.051445685,9.817153,0.0024434591,0.0006108648,-0.0004581486,-90.675,11.400001,41.006252,watch_1
26197256578181,0.31585258,0.051445685,9.817153,0.0024434591,0.0006108648,-0.0004581486,-89.2125,10.837501,42.975002,watch_1
26197249714536,0.31585258,0.0035892338,9.807582,-0.0073303776,-0.0067195124,-0.0004581486,-89.2125,10.837501,42.975002,watch_1
26197244751775,0.31585258,0.0035892338,9.807582,-0.0073303776,-0.0067195124,-0.0004581486,-89.2125,10.837501,42.975002,watch_1
26197266578129,0.31585258,0.0035892338,9.807582,-0.0073303776,-0.0067195124,-0.0004581486,-90.825005,11.53125,40.8375,watch_1
26197276578077,0.31585258,0.0035892338,9.807582,-0.0073303776,-0.0067195124,-0.0004581486,-88.762505,12.656251,40.3875,watch_1
26197268788546,0.32542387,-0.0059820567,9.783653,-0.0073303776,-0.0067195124,-0.0004581486,-88.762505,12.656251,40.3875,watch_1
26197263825786,0.32542387,-0.0059820567,9.783653,-0.0024434591,-0.0030543238,-0.0004581486,-88.762505,12.656251,40.3875,watch_1
26197286578025,0.32542387,-0.0059820567,9.783653,-0.0024434591,-0.0030543238,-0.0004581486,-87.95625,13.012501,41.15625,watch_1
26197296577973,0.32542387,-0.0059820567,9.783653,-0.0024434591,-0.0030543238,-0.0004581486,-89.193756,11.306251,41.193752,watch_1
26197282898754,0.33499518,-0.025124637,9.812367,-0.0012217296,0.0042760535,-0.0004581486,-89.193756,11.306251,41.193752,watch_1
26197287861515,0.33499518,-0.025124637,9.812367,-0.0012217296,0.0042760535,-0.0004581486,-89.193756,11.306251,41.193752,watch_1
26197306577921,0.33499518,-0.025124637,9.812367,-0.0012217296,0.0042760535,-0.0004581486,-89.83125,12.20625,41.025,watch_1
26197316577869,0.33499518,-0.025124637,9.812367,-0.0012217296,0.0042760535,-0.0004581486,-91.068756,10.650001,41.04375,watch_1
26197301941775,0.3493521,-0.0011964113,9.798011,-0.0012217296,-0.0042760535,-0.0004581486,-91.068756,10.650001,41.04375,watch_1
26197306904536,0.3493521,-0.0011964113,9.798011,-0.0012217296,-0.0042760535,-0.0004581486,-91.068756,10.650001,41.04375,watch_1
26197326577817,0.3493521,-0.0011964113,9.798011,-0.0012217296,-0.0042760535,-0.0004581486,-91.70625,11.53125,41.60625,watch_1
26197325978546,0.33499518,0.03708875,9.802796,-0.0012217296,-0.0042760535,-0.0004581486,-91.70625,11.53125,41.60625,watch_1
26197321015786,0.33499518,0.03708875,9.802796,0.0024434591,-0.0030543238,-0.0004581486,-91.70625,11.53125,41.60625,watch_1
26197346577713,0.32063824,0.02751746,9.817153,-0.0024434591,0.0067195124,-0.0004581486,-89.475006,12.825001,41.006252,watch_1
26197345051515,0.32063824,0.02751746,9.817153,-0.0024434591,0.0067195124,-0.0004581486,-89.475006,12.825001,41.006252,watch_1
26197340088754,0.32063824,0.02751746,9.817153,-0.0024434591,0.0067195124,-0.0004581486,-89.475006,12.825001,41.006252,watch_1
26197356577661,0.32063824,0.02751746,9.817153,-0.0024434591,0.0067195124,-0.0004581486,-89.475006,12.825001,41.006252,watch_1
26197336577765,0.32063824,0.02751746,9.817153,-0.0024434591,0.0067195124,-0.0004581486,-89.475006,12.825001,41.006252,watch_1
26197366577609,0.32063824,0.008374879,9.788439,-0.0024434591,0.0067195124,-0.0004581486,-89.25,12.150001,40.66875,watch_1
26197364124536,0.32063824,0.008374879,9.788439,-0.0024434591,0.0067195124,-0.0004581486,-89.25,12.150001,40.66875,watch_1
26197359161775,0.32063824,0.008374879,9.788439,-0.0024434591,0.0006108648,-0.0004581486,-88.912506,12.150001,42.600002,watch_1
26197383198546,0.31585258,0.0035892338,9.798011,-0.0024434591,-0.0006108648,-0.0004581486,-89.025,11.137501,43.10625,watch_1
26197396577452,0.31585258,0.0035892338,9.798011,-0.0024434591,-0.0006108648,-0.0004581486,-88.9875,8.418751,44.98125,watch_1
26197386577504,0.31585258,0.0035892338,9.798011,-0.0024434591,-0.0006108648,-0.0004581486,-88.912506,12.150001,42.600002,watch_1
26197406577400,0.31585258,0.0035892338,9.798011,-0.0024434591,-0.0006108648,-0.0004581486,-88.9875,8.418751,44.98125,watch_1
26197378235786,0.31585258,0.0035892338,9.798011,-0.0024434591,-0.0006108648,-0.0004581486,-89.025,11.137501,43.10625,watch_1
26197376577556,0.31585258,0.0035892338,9.798011,-0.0024434591,-0.0006108648,-0.0004581486,-88.9875,8.418751,44.98125,watch_1
26197402271515,0.3397808,-0.020338992,9.817153,-0.0036651888,-0.0030543238,-0.0004581486,-88.9875,8.418751,44.98125,watch_1
26197397308754,0.3397808,-0.020338992,9.817153,-0.0036651888,-0.0030543238,-0.0004581486,-87.65625,11.325001,42.825,watch_1
26197416577348,0.3397808,-0.020338992,9.817153,-0.0036651888,-0.0030543238,-0.0004581486,-87.65625,11.325001,42.825,watch_1
26197426577296,0.3397808,-0.020338992,9.817153,-0.0036651888,-0.0030543238,-0.0004581486,-88.631256,10.3125,44.7,watch_1
26197421345525,0.33020952,0.013160525,9.778868,-0.0036651888,-0.0030543238,-0.0004581486,-88.631256,10.3125,44.7,watch_1
26197416382765,0.33020952,0.013160525,9.778868,0.0012217296,0.0006108648,-0.0004581486,-88.631256,10.3125,44.7,watch_1
26197436577244,0.33020952,0.013160525,9.778868,0.0012217296,0.0006108648,-0.0004581486,-88.93125,10.575001,43.331253,watch_1
26197446577192,0.33020952,0.013160525,9.778868,0.0012217296,0.0006108648,-0.0004581486,-90.43125,10.51875,43.59375,watch_1
26197435455786,0.32542387,0.022731815,9.826724,0.0012217296,0.0042760535,-0.0004581486,-90.43125,10.51875,43.59375,watch_1
26197440418546,0.32542387,0.022731815,9.826724,0.0012217296,0.0042760535,-0.0004581486,-90.43125,10.51875,43.59375,watch_1
26197456577140,0.32542387,0.022731815,9.826724,0.0012217296,0.0042760535,-0.0004581486,-89.662506,12.0375,43.237503,watch_1
26197466577088,0.32542387,0.022731815,9.826724,0.0012217296,0.0042760535,-0.0004581486,-89.775,12.468751,42.75,watch_1
26197454498754,0.31585258,0.032303106,9.798011,-0.0012217296,-0.0006108648,-0.0004581486,-89.775,12.468751,42.75,watch_1
26197459461515,0.31585258,0.032303106,9.798011,-0.0012217296,-0.0006108648,-0.0004581486,-89.775,12.468751,42.75,watch_1
26197476577036,0.31585258,0.032303106,9.798011,-0.0012217296,-0.0006108648,-0.0004581486,-91.162506,10.89375,41.5875,watch_1
26197486576984,0.31585258,0.032303106,9.798011,-0.0012217296,-0.0006108648,-0.0004581486,-89.2125,10.856251,42.54375,watch_1
26197473572765,0.32063824,0.01794617,9.798011,-0.0012217296,0.0006108648,-0.0004581486,-89.2125,10.856251,42.54375,watch_1
26197478535525,0.32063824,0.01794617,9.798011,-0.0012217296,0.0006108648,-0.0004581486,-89.2125,10.856251,42.54375,watch_1
26197496576931,0.32063824,0.01794617,9.798011,-0.0012217296,0.0006108648,-0.0004581486,-88.51875,11.962501,40.912502,watch_1
26197506576879,0.32063824,0.01794617,9.798011,-0.0012217296,0.0006108648,-0.0004581486,-89.756256,11.325001,43.0125,watch_1
26197497608546,0.31585258,0.0035892338,9.807582,-0.0012217296,0.0006108648,-0.0004581486,-89.756256,11.325001,43.0125,watch_1
26197492645786,0.31585258,0.0035892338,9.807582,-0.0024434591,-0.0006108648,-0.0004581486,-89.756256,11.325001,43.0125,watch_1
26197516576827,0.31585258,0.0035892338,9.807582,-0.0024434591,-0.0006108648,-0.0004581486,-89.850006,8.71875,45.43125,watch_1
26197516682504,0.32542387,-0.0059820567,9.788439,-0.0024434591,-0.0006108648,-0.0004581486,-89.850006,8.71875,45.43125,watch_1
26197511719744,0.32542387,-0.0059820567,9.788439,-0.0012217296,-0.0030543238,-0.0004581486,-90.9375,9.88125,44.325,watch_1
26197526576775,0.32542387,-0.0059820567,9.788439,-0.0012217296,-0.0030543238,-0.0004581486,-90.9375,9.88125,44.325,watch_1
26197536576723,0.32542387,-0.0059820567,9.788439,-0.0012217296,-0.0030543238,-0.0004581486,-88.51875,6.8812504,47.081253,watch_1
26197535755525,0.33499518,0.008374879,9.826724,0.0,-0.0006108648,-0.0004581486,-88.51875,6.8812504,47.081253,watch_1
26197530792765,0.33499518,0.008374879,9.826724,0.0,-0.0006108648,-0.0004581486,-88.51875,6.8812504,47.081253,watch_1
26197546576671,0.33499518,0.008374879,9.826724,0.0,-0.0006108648,-0.0004581486,-87.09375,5.8875003,49.237503,watch_1
26197556576619,0.33499518,0.008374879,9.826724,0.0,-0.0006108648,-0.0004581486,-88.350006,9.431251,41.175003,watch_1
26197554829536,0.3397808,0.032303106,9.798011,0.0,-0.0018325944,-0.0004581486,-87.600006,10.481251,43.2,watch_1
26197549866775,0.3397808,0.032303106,9.798011,0.0,-0.0018325944,-0.0004581486,-87.600006,10.481251,43.2,watch_1
26197566576567,0.3397808,0.032303106,9.798011,0.0,-0.0018325944,-0.0004581486,-87.600006,10.481251,43.2,watch_1
26197576576515,0.3397808,0.032303106,9.798011,0.0,-0.0018325944,-0.0004581486,-88.293755,10.8,43.818752,watch_1
26197573902504,0.32542387,0.022731815,9.783653,0.0,-0.0018325944,-0.0004581486,-88.293755,10.8,43.818752,watch_1
26197568939744,0.32542387,0.022731815,9.783653,-0.0012217296,0.0042760535,-0.0004581486,-88.293755,10.8,43.818752,watch_1
26197586576463,0.32542387,0.022731815,9.783653,-0.0012217296,0.0042760535,-0.0004581486,-88.55625,11.34375,43.29375,watch_1
26197596576411,0.32542387,0.022731815,9.783653,-0.0012217296,0.0042760535,-0.0004581486,-88.65,10.3125,44.11875,watch_1
26197592976515,0.32063824,0.013160525,9.817153,-0.0012217296,0.0042760535,-0.0004581486,-88.65,10.3125,44.11875,watch_1
26197588013754,0.32063824,0.013160525,9.817153,-0.0024434591,0.0030543238,-0.0004581486,-88.65,10.3125,44.11875,watch_1
26197616576306,0.32063824,0.013160525,9.817153,-0.0024434591,0.0030543238,-0.0004581486,-89.9625,10.725,43.48125,watch_1
26197606576359,0.32063824,0.013160525,9.817153,-0.0024434591,0.0030543238,-0.0004581486,-89.9625,10.725,43.48125,watch_1
26197612049536,0.31585258,-0.0011964113,9.783653,-0.0024434591,-0.0018325944,-0.0004581486,-89.9625,10.725,43.48125,watch_1
26197607086775,0.31585258,-0.0011964113,9.783653,-0.0024434591,-0.0018325944,-0.0004581486,-89.006256,11.4375,42.35625,watch_1
26197626576254,0.31585258,-0.0011964113,9.783653,-0.0024434591,-0.0018325944,-0.0004581486,-89.006256,11.4375,42.35625,watch_1
26197636576202,0.31585258,-0.0011964113,9.783653,-0.0024434591,-0.0018325944,-0.0004581486,-88.481255,8.7375,46.4625,watch_1
26197626129744,0.32542387,-0.0059820567,9.793225,-0.0012217296,0.0018325944,-0.0004581486,-88.481255,8.7375,46.4625,watch_1
26197631092504,0.32542387,-0.0059820567,9.793225,-0.0012217296,0.0018325944,-0.0004581486,-88.481255,8.7375,46.4625,watch_1
26197646576150,0.32542387,-0.0059820567,9.793225,-0.0012217296,0.0018325944,-0.0004581486,-87.131256,5.5875,49.537502,watch_1
26197656576098,0.32542387,-0.0059820567,9.793225,-0.0012217296,0.0018325944,-0.0004581486,-89.08125,10.06875,46.55625,watch_1
26197650166515,0.32542387,0.013160525,9.812367,0.0012217296,-0.0030543238,-0.0016798781,-89.08125,10.06875,46.55625,watch_1
26197645203754,0.32542387,0.013160525,9.812367,0.0012217296,-0.0030543238,-0.0016798781,-89.08125,10.06875,46.55625,watch_1
26197666576046,0.32542387,0.013160525,9.812367,0.0012217296,-0.0030543238,-0.0016798781,-89.2125,10.837501,42.975002,watch_1
26197676575994,0.32542387,0.013160525,9.812367,0.0012217296,-0.0030543238,-0.0016798781,-88.51875,7.3500004,44.7,watch_1
26197669239536,0.33020952,0.02751746,9.793225,0.0012217296,-0.0030543238,-0.0016798781,-88.51875,7.3500004,44.7,watch_1
26197664276775,0.33020952,0.02751746,9.793225,0.0,-0.0006108648,-0.0004581486,-88.51875,7.3500004,44.7,watch_1
26197686575942,0.33020952,0.02751746,9.793225,0.0,-0.0006108648,-0.0004581486,-90.0,7.1250005,46.59375,watch_1
26197696575890,0.33020952,0.02751746,9.793225,0.0,-0.0006108648,-0.0004581486,-88.818756,9.675,46.331253,watch_1
26197688313546,0.33499518,0.02751746,9.807582,0.0,0.0018325944,-0.0004581486,-88.818756,9.675,46.331253,watch_1
26197683350786,0.33499518,0.02751746,9.807582,0.0,0.0018325944,-0.0004581486,-88.818756,9.675,46.331253,watch_1
26197706575838,0.33499518,0.02751746,9.807582,0.0,0.0018325944,-0.0004581486,-89.606255,11.212501,43.18125,watch_1
26197716575786,0.33499518,0.02751746,9.807582,0.0,0.0018325944,-0.0004581486,-88.256256,11.231251,43.2,watch_1
26197707386515,0.3397808,0.022731815,9.802796,0.0,0.0018325944,-0.0004581486,-88.256256,11.231251,43.2,watch_1
26197702423754,0.3397808,0.022731815,9.802796,-0.0012217296,-0.0006108648,-0.0016798781,-88.256256,11.231251,43.2,watch_1
26197726575734,0.3397808,0.022731815,9.802796,-0.0012217296,-0.0006108648,-0.0016798781,-88.125,6.8250003,45.24375,watch_1
26197721497765,0.32542387,-0.015553347,9.793225,-0.0036651888,0.0030543238,-0.0004581486,-88.96875,10.293751,43.050003,watch_1
26197726460525,0.32542387,-0.015553347,9.793225,-0.0036651888,0.0030543238,-0.0004581486,-88.125,6.8250003,45.24375,watch_1
26197736575681,0.32542387,-0.015553347,9.793225,-0.0036651888,0.0030543238,-0.0004581486,-88.96875,10.293751,43.050003,watch_1
26197746575629,0.32542387,-0.015553347,9.793225,-0.0036651888,0.0030543238,-0.0004581486,-89.700005,12.075001,41.643753,watch_1
26197740570786,0.32542387,-0.0011964113,9.802796,0.0,0.0006108648,-0.0004581486,-89.475006,6.6562505,45.09375,watch_1
26197745533546,0.32542387,-0.0011964113,9.802796,0.0,0.0006108648,-0.0004581486,-89.475006,6.6562505,45.09375,watch_1
26197756575577,0.32542387,-0.0011964113,9.802796,0.0,0.0006108648,-0.0004581486,-89.475006,6.6562505,45.09375,watch_1
26197766575525,0.32542387,-0.0011964113,9.802796,0.0,0.0006108648,-0.0004581486,-89.90625,10.06875,42.09375,watch_1
26197764607504,0.31106696,0.0035892338,9.802796,0.0,0.0006108648,-0.0004581486,-89.90625,10.06875,42.09375,watch_1
26197759644744,0.31106696,0.0035892338,9.802796,-0.0012217296,-0.0006108648,-0.0004581486,-89.90625,10.06875,42.09375,watch_1
26197776575473,0.31106696,0.0035892338,9.802796,-0.0012217296,-0.0006108648,-0.0004581486,-89.7375,11.64375,41.9625,watch_1
26197786575421,0.31106696,0.0035892338,9.802796,-0.0012217296,-0.0006108648,-0.0004581486,-89.325005,11.418751,41.737503,watch_1
26197783680525,0.33020952,0.008374879,9.807582,0.0,0.0018325944,-0.0004581486,-89.25,10.556251,42.5625,watch_1
26197778717765,0.33020952,0.008374879,9.807582,0.0,0.0018325944,-0.0004581486,-89.25,10.556251,42.5625,watch_1
26197796575369,0.33020952,0.008374879,9.807582,0.0,0.0018325944,-0.0004581486,-89.25,10.556251,42.5625,watch_1
26197806575317,0.33020952,0.008374879,9.807582,0.0,0.0018325944,-0.0004581486,-89.231255,10.5375,43.59375,watch_1
26197802723546,0.32542387,0.022731815,9.807582,0.0,0.0018325944,-0.0004581486,-89.231255,10.5375,43.59375,watch_1
26197797760786,0.32542387,0.022731815,9.807582,0.0012217296,-0.0030543238,-0.0004581486,-89.231255,10.5375,43.59375,watch_1
26197816575265,0.32542387,0.022731815,9.807582,0.0012217296,-0.0030543238,-0.0004581486,-86.981255,9.1125,44.41875,watch_1
