# Session ID: 20250816_085425
# Device ID: left
# Start Time: 1755327265884
# Sample Count: 2070
# Generated by Watch IMU Recorder
timestamp,accel_x,accel_y,accel_z,gyro_x,gyro_y,gyro_z,mag_x,mag_y,mag_z,watch_name
12341224688240,3.5796626,-1.3842479,8.955737,-2.0439537,-0.24006985,0.021532983,-29.531252,19.0125,-8.512501,left
12341244139490,3.5796626,-1.4321043,8.950952,-2.0439537,-0.24006985,0.021532983,-29.531252,19.0125,-8.512501,left
12341262842511,3.6227336,-1.4608182,8.931808,-2.0439537,-0.24006985,0.021532983,-29.531252,19.0125,-8.512501,left
12341281915584,3.6849468,-1.4847465,8.922237,-2.0439537,-0.24006985,0.021532983,-29.531252,19.0125,-8.512501,left
12341300989595,3.6753755,-1.5565311,9.099306,-2.0439537,-0.24006985,0.021532983,-29.531252,19.0125,-8.512501,left
12341296026834,3.6753755,-1.5565311,9.099306,0.0061086477,0.048258316,0.081397735,-29.531252,19.0125,-8.512501,left
12341324065063,3.6753755,-1.5565311,9.099306,0.0061086477,0.048258316,0.081397735,-14.156251,11.925,-31.2,left
12341320032563,3.6227336,-1.6570296,9.285947,0.0061086477,0.048258316,0.081397735,-14.156251,11.925,-31.2,left
12341315069803,3.6227336,-1.6570296,9.285947,0.042760536,0.049480047,0.07895427,-14.156251,11.925,-31.2,left
12341334065011,3.6227336,-1.6570296,9.285947,0.042760536,0.049480047,0.07895427,-12.31875,13.556251,-30.562502,left
12341344064959,3.6227336,-1.6570296,9.285947,0.042760536,0.049480047,0.07895427,-12.6,12.39375,-30.91875,left
12341339105584,3.5605202,-1.599602,9.295518,0.06963859,0.03604102,0.075289086,-12.6,12.39375,-30.91875,left
12341334142824,3.5605202,-1.599602,9.295518,0.06963859,0.03604102,0.075289086,-14.2875,10.950001,-32.568752,left
12341354064907,3.5605202,-1.599602,9.295518,0.06963859,0.03604102,0.075289086,-14.2875,10.950001,-32.568752,left
12341364064855,3.5605202,-1.599602,9.295518,0.06963859,0.03604102,0.075289086,-11.962501,12.937501,-32.0625,left
12341353216834,3.5796626,-1.451247,9.305089,0.08796453,0.020158539,0.07895427,-11.962501,12.937501,-32.0625,left
12341358179595,3.5796626,-1.451247,9.305089,0.08796453,0.020158539,0.07895427,-11.962501,12.937501,-32.0625,left
12341374064803,3.5796626,-1.451247,9.305089,0.08796453,0.020158539,0.07895427,-11.475,11.700001,-30.862501,left
12341384064751,3.5796626,-1.451247,9.305089,0.08796453,0.020158539,0.07895427,-12.975,13.556251,-33.975002,left
12341377252563,3.5605202,-1.4703895,9.2285185,0.067195125,0.0067195124,0.08384119,-12.975,13.556251,-33.975002,left
12341372289803,3.5605202,-1.4703895,9.2285185,0.067195125,0.0067195124,0.08384119,-12.975,13.556251,-33.975002,left
12341394064699,3.5605202,-1.4703895,9.2285185,0.067195125,0.0067195124,0.08384119,-12.975,13.5375,-33.693752,left
12341404064647,3.5605202,-1.4703895,9.2285185,0.067195125,0.0067195124,0.08384119,-12.58125,13.031251,-33.73125,left
12341396326574,3.5700915,-1.6426728,9.209376,0.050090913,0.0030543238,0.081397735,-12.58125,13.031251,-33.73125,left
12341391363813,3.5700915,-1.6426728,9.209376,0.050090913,0.0030543238,0.081397735,-12.58125,13.031251,-33.73125,left
12341414064595,3.5700915,-1.6426728,9.209376,0.050090913,0.0030543238,0.081397735,-14.2875,13.781251,-32.98125,left
12341415399595,3.5270207,-1.7096717,9.166306,0.050090913,0.0030543238,0.081397735,-13.012501,11.681251,-32.643753,left
12341424064543,3.5270207,-1.7096717,9.166306,0.050090913,0.0030543238,0.081397735,-13.012501,11.681251,-32.643753,left
12341410436834,3.5270207,-1.7096717,9.166306,0.073303774,0.01282816,0.074067354,-12.187501,13.762501,-33.037502,left
12341434064490,3.5270207,-1.7096717,9.166306,0.073303774,0.01282816,0.074067354,-12.187501,13.762501,-33.037502,left
12341429510845,3.5270207,-1.7096717,9.166306,0.12217296,0.017715078,0.07651082,-13.81875,15.431251,-34.256252,left
12341444064438,3.5270207,-1.7096717,9.166306,0.12217296,0.017715078,0.07651082,-13.81875,15.431251,-34.256252,left
12341434473605,3.4743786,-1.5517455,9.204591,0.12217296,0.017715078,0.07651082,-13.81875,15.431251,-34.256252,left
12341454064386,3.4743786,-1.5517455,9.204591,0.12217296,0.017715078,0.07651082,-13.387501,15.337501,-34.050003,left
12341448583813,3.493521,-1.3363914,9.185448,0.11484258,0.023823727,0.08384119,-12.168751,14.062501,-33.35625,left
12341464064334,3.493521,-1.3363914,9.185448,0.11484258,0.023823727,0.08384119,-12.168751,14.062501,-33.35625,left
12341453546574,3.493521,-1.3363914,9.185448,0.11484258,0.023823727,0.08384119,-12.168751,14.062501,-33.35625,left
12341474064282,3.493521,-1.3363914,9.185448,0.11484258,0.023823727,0.08384119,-13.44375,13.481251,-34.03125,left
12341467656834,3.493521,-1.3363914,9.185448,0.05131264,0.028710645,0.09605849,-13.44375,13.481251,-34.03125,left
12341472619595,3.5318062,-1.3124632,9.104092,0.05131264,0.028710645,0.09605849,-10.650001,11.25,-31.312502,left
12341484064230,3.5318062,-1.3124632,9.104092,0.05131264,0.028710645,0.09605849,-10.650001,11.25,-31.312502,left
12341494064178,3.5318062,-1.3124632,9.104092,0.05131264,0.028710645,0.09605849,-12.562501,11.587501,-32.4375,left
12341491662563,3.4648073,-1.599602,9.032308,0.0073303776,0.04214967,0.10583232,-11.400001,12.731251,-33.0,left
12341486699803,3.4648073,-1.599602,9.032308,0.0073303776,0.04214967,0.10583232,-11.400001,12.731251,-33.0,left
12341504064126,3.4648073,-1.599602,9.032308,0.0073303776,0.04214967,0.10583232,-11.400001,12.731251,-33.0,left
12341514064074,3.4648073,-1.599602,9.032308,0.0073303776,0.04214967,0.10583232,-11.868751,11.26875,-32.90625,left
12341510736574,3.3834512,-1.8436699,9.022736,0.0073303776,0.04214967,0.10583232,-11.868751,11.26875,-32.90625,left
12341505773813,3.3834512,-1.8436699,9.022736,0.037873615,0.055588696,0.10216714,-11.868751,11.26875,-32.90625,left
12341524064022,3.3834512,-1.8436699,9.022736,0.037873615,0.055588696,0.10216714,-11.55,13.968751,-32.11875,left
12341534063970,3.3834512,-1.8436699,9.022736,0.037873615,0.055588696,0.10216714,-12.6,12.712501,-32.4,left
12341529809595,3.3116665,-1.867598,9.022736,0.11728604,0.06780599,0.08994984,-12.6,12.712501,-32.4,left
12341544063918,3.3116665,-1.867598,9.022736,0.11728604,0.06780599,0.08994984,-13.368751,14.212501,-34.3875,left
12341524846834,3.3116665,-1.867598,9.022736,0.11728604,0.06780599,0.08994984,-12.6,12.712501,-32.4,left
12341554063865,3.3116665,-1.867598,9.022736,0.11728604,0.06780599,0.08994984,-13.06875,12.843751,-34.65,left
12341548883605,3.3403804,-1.6713866,8.94138,0.16371176,0.07513637,0.080176,-13.06875,12.843751,-34.65,left
12341543920845,3.3403804,-1.6713866,8.94138,0.16371176,0.07513637,0.080176,-13.06875,12.843751,-34.65,left
12341564063813,3.3403804,-1.6713866,8.94138,0.16371176,0.07513637,0.080176,-13.275001,13.9875,-36.24375,left
12341574063761,3.4217365,-1.4943178,8.826525,0.13927718,0.08735366,0.08384119,-12.20625,15.375001,-35.662502,left
12341567956574,3.4217365,-1.4943178,8.826525,0.13927718,0.08735366,0.08384119,-12.20625,15.375001,-35.662502,left
12341562993813,3.4217365,-1.4943178,8.826525,0.13927718,0.08735366,0.08384119,-12.20625,15.375001,-35.662502,left
12341584063709,3.4217365,-1.4943178,8.826525,0.13927718,0.08735366,0.08384119,-13.481251,13.06875,-34.275,left
12341594063657,3.4217365,-1.4943178,8.826525,0.13927718,0.08735366,0.08384119,-10.181251,13.368751,-34.800003,left
12341587030584,3.4504502,-1.5421742,8.7882395,0.13927718,0.08735366,0.08384119,-10.181251,13.368751,-34.800003,left
12341582067824,3.4504502,-1.5421742,8.7882395,0.05864302,0.10567961,0.087506376,-10.181251,13.368751,-34.800003,left
12341604063605,3.4504502,-1.5421742,8.7882395,0.05864302,0.10567961,0.087506376,-12.4875,12.95625,-36.1875,left
12341601140845,3.4839497,-1.7096717,8.730812,-0.0061086477,0.12767074,0.087506376,-13.725,13.762501,-35.100002,left
12341606103605,3.4839497,-1.7096717,8.730812,-0.0061086477,0.12767074,0.087506376,-13.725,13.762501,-35.100002,left
12341614063553,3.4839497,-1.7096717,8.730812,-0.0061086477,0.12767074,0.087506376,-13.725,13.762501,-35.100002,left
12341624063501,3.4743786,-1.8005991,8.764311,-0.015882485,0.14966187,0.080176,-11.75625,14.175,-35.79375,left
12341654063345,3.4743786,-1.8005991,8.764311,-0.020769402,0.15821397,0.06918044,-11.8125,13.106251,-32.925003,left
12341634063449,3.4743786,-1.8005991,8.764311,-0.020769402,0.15821397,0.06918044,-11.75625,14.175,-35.79375,left
12341644220584,3.4743786,-1.8005991,8.764311,-0.020769402,0.15821397,0.06918044,-11.8125,13.106251,-32.925003,left
12341625177563,3.4743786,-1.8005991,8.764311,-0.020769402,0.15821397,0.06918044,-11.8125,13.106251,-32.925003,left
12341639257824,3.4743786,-1.8005991,8.764311,-0.020769402,0.15821397,0.06918044,-11.8125,13.106251,-32.925003,left
12341664063293,3.4743786,-1.8005991,8.764311,-0.020769402,0.15821397,0.06918044,-11.8125,13.106251,-32.925003,left
12341620214803,3.4743786,-1.8005991,8.764311,-0.020769402,0.15821397,0.06918044,-11.8125,13.106251,-32.925003,left
12341644063397,3.4743786,-1.8005991,8.764311,-0.020769402,0.15821397,0.06918044,-11.8125,13.106251,-32.925003,left
12341663293605,3.3834512,-1.5278172,8.639884,-0.02443459,0.1631009,0.07773254,-11.8125,13.106251,-32.925003,left
12341658330845,3.3834512,-1.5278172,8.639884,-0.02443459,0.1631009,0.07773254,-11.8125,13.106251,-32.925003,left
12341674063240,3.3834512,-1.5278172,8.639884,-0.02443459,0.1631009,0.07773254,-12.843751,11.85,-33.075,left
12341684063188,3.3834512,-1.5278172,8.639884,-0.02443459,0.1631009,0.07773254,-12.675,13.575001,-33.65625,left
12341694063136,3.182454,-1.4991034,8.386245,-0.045203995,0.16920954,0.099723674,-10.25625,13.9125,-34.425003,left
12341677404803,3.182454,-1.4991034,8.386245,-0.045203995,0.16920954,0.099723674,-10.25625,13.9125,-34.425003,left
12341682367563,3.182454,-1.4991034,8.386245,-0.045203995,0.16920954,0.099723674,-10.25625,13.9125,-34.425003,left
12341704063084,3.182454,-1.4991034,8.386245,-0.045203995,0.16920954,0.099723674,-10.668751,15.543751,-33.9,left
12341701440584,3.0149565,-1.451247,8.300103,-0.05986475,0.20097451,0.12538,-10.668751,15.543751,-33.9,left
12341696477824,3.0149565,-1.451247,8.300103,-0.05986475,0.20097451,0.12538,-10.668751,15.543751,-33.9,left
12341714063032,3.0149565,-1.451247,8.300103,-0.05986475,0.20097451,0.12538,-13.2375,13.950001,-34.48125,left
12341724062980,3.0149565,-1.451247,8.300103,-0.05986475,0.20097451,0.12538,-14.55,12.937501,-34.3875,left
12341720514595,2.9671001,-1.4033905,8.333603,-0.05986475,0.20097451,0.12538,-14.55,12.937501,-34.3875,left
12341715551834,2.9671001,-1.4033905,8.333603,-0.08918626,0.23884813,0.16569707,-11.231251,14.793751,-35.49375,left
12341734062928,2.9671001,-1.4033905,8.333603,-0.08918626,0.23884813,0.16569707,-11.231251,14.793751,-35.49375,left
12341744062876,2.9671001,-1.4033905,8.333603,-0.08918626,0.23884813,0.16569707,-10.6875,14.306251,-35.25,left
12341739587563,3.1058838,-1.288535,8.592028,-0.15393792,0.2669479,0.20234896,-10.6875,14.306251,-35.25,left
12341734624803,3.1058838,-1.288535,8.592028,-0.15393792,0.2669479,0.20234896,-10.6875,14.306251,-35.25,left
12341754062824,3.1058838,-1.288535,8.592028,-0.15393792,0.2669479,0.20234896,-11.137501,14.231251,-34.987503,left
12341764062772,3.1058838,-1.288535,8.592028,-0.15393792,0.2669479,0.20234896,-10.5375,15.281251,-33.73125,left
12341758661574,3.0915267,-1.666601,8.903095,-0.24434592,0.27672175,0.229227,-10.5375,15.281251,-33.73125,left
12341753698813,3.0915267,-1.666601,8.903095,-0.24434592,0.27672175,0.229227,-10.5375,15.281251,-33.73125,left
12341774062720,3.0915267,-1.666601,8.903095,-0.24434592,0.27672175,0.229227,-12.0,15.825001,-34.96875,left
12341784062668,3.0915267,-1.666601,8.903095,-0.24434592,0.27672175,0.229227,-12.375001,13.968751,-36.28125,left
12341777734595,2.9862428,-2.111666,8.984451,-0.24434592,0.27672175,0.229227,-12.375001,13.968751,-36.28125,left
12341772771834,2.9862428,-2.111666,8.984451,-0.26633704,0.27672175,0.21700971,-11.3625,14.606251,-34.050003,left
12341794062615,2.9862428,-2.111666,8.984451,-0.26633704,0.27672175,0.21700971,-11.3625,14.606251,-34.050003,left
12341804062563,2.9862428,-2.111666,8.984451,-0.26633704,0.27672175,0.21700971,-11.325001,15.20625,-35.11875,left
12341796808605,2.952743,-1.814956,8.907881,-0.18448116,0.2864956,0.22311836,-11.325001,15.20625,-35.11875,left
12341791845845,2.952743,-1.814956,8.907881,-0.18448116,0.2864956,0.22311836,-11.325001,15.20625,-35.11875,left
12341814062511,2.952743,-1.814956,8.907881,-0.18448116,0.2864956,0.22311836,-11.493751,13.6125,-34.987503,left
12341824062459,2.952743,-1.814956,8.907881,-0.18448116,0.2864956,0.22311836,-10.743751,14.83125,-34.143753,left
12341815851574,2.8761728,-1.2837493,8.879167,-0.13927718,0.30115634,0.26710063,-10.743751,14.83125,-34.143753,left
12341810888813,2.8761728,-1.2837493,8.879167,-0.13927718,0.30115634,0.26710063,-10.743751,14.83125,-34.143753,left
12341834062407,2.8761728,-1.2837493,8.879167,-0.13927718,0.30115634,0.26710063,-9.4875,16.6875,-33.881252,left
12341844062355,2.8761728,-1.2837493,8.879167,-0.13927718,0.30115634,0.26710063,-11.19375,15.075001,-35.23125,left
12341834924595,2.6895328,-1.3651053,8.955737,-0.23090689,0.31093016,0.3074177,-11.19375,15.075001,-35.23125,left
12341829961834,2.6895328,-1.3651053,8.955737,-0.23090689,0.31093016,0.3074177,-11.19375,15.075001,-35.23125,left
12341854062303,2.6895328,-1.3651053,8.955737,-0.23090689,0.31093016,0.3074177,-9.543751,14.83125,-33.5625,left
12341853998605,2.4933212,-2.178665,9.16152,-0.3090976,0.30726498,0.32330018,-9.543751,14.83125,-33.5625,left
12341849035845,2.4933212,-2.178665,9.16152,-0.3090976,0.30726498,0.32330018,-9.543751,14.83125,-33.5625,left
12341864062251,2.4933212,-2.178665,9.16152,-0.3090976,0.30726498,0.32330018,-9.28125,16.35,-36.15,left
12341874062199,2.4933212,-2.178665,9.16152,-0.3090976,0.30726498,0.32330018,-9.28125,16.35,-36.15,left
12341884062147,2.4933212,-2.178665,9.16152,-0.22357652,0.31459537,0.31230462,-10.556251,15.3,-34.74375,left
12341868108813,2.4933212,-2.178665,9.16152,-0.22357652,0.31459537,0.31230462,-10.556251,15.3,-34.74375,left
12341873071574,2.306681,-2.5950162,9.309875,-0.22357652,0.31459537,0.31230462,-10.556251,15.3,-34.74375,left
12341894062095,2.306681,-2.5950162,9.309875,-0.22357652,0.31459537,0.31230462,-9.95625,15.375001,-34.96875,left
12341887182824,2.306681,-2.5950162,9.309875,-0.046425723,0.31459537,0.31474808,-9.95625,15.375001,-34.96875,left
12341904062043,2.306681,-2.5950162,9.309875,-0.046425723,0.31459537,0.31474808,-8.231251,16.1625,-34.706253,left
12341892145584,2.2588246,-2.3844478,9.443872,-0.046425723,0.31459537,0.31474808,-8.231251,16.1625,-34.706253,left
12341914061990,2.2588246,-2.3844478,9.443872,-0.046425723,0.31459537,0.31474808,-8.025001,15.187501,-33.862503,left
12341911218605,2.254039,-1.8915263,9.659226,0.013439025,0.30726498,0.32207847,-8.025001,15.187501,-33.862503,left
12341906255845,2.254039,-1.8915263,9.659226,0.013439025,0.30726498,0.32207847,-8.025001,15.187501,-33.862503,left
12341924061938,2.254039,-1.8915263,9.659226,0.013439025,0.30726498,0.32207847,-9.4125,13.44375,-33.99375,left
12341934061886,2.254039,-1.8915263,9.659226,0.013439025,0.30726498,0.32207847,-9.28125,14.906251,-35.568752,left
12341925329803,2.1918256,-1.896312,9.850653,-0.106290475,0.28527385,0.3281871,-9.28125,14.906251,-35.568752,left
12341930292563,2.1918256,-1.896312,9.850653,-0.106290475,0.28527385,0.3281871,-9.28125,14.906251,-35.568752,left
12341944061834,2.1918256,-1.896312,9.850653,-0.106290475,0.28527385,0.3281871,-7.9500003,15.918751,-34.95,left
12341954061782,2.1918256,-1.896312,9.850653,-0.106290475,0.28527385,0.3281871,-8.6625,16.556252,-36.24375,left
12341949365584,2.2588246,-2.3700907,10.300504,-0.106290475,0.28527385,0.3281871,-8.6625,16.556252,-36.24375,left
12341944402824,2.2588246,-2.3700907,10.300504,-0.24678937,0.24373505,0.3159698,-8.6625,16.556252,-36.24375,left
12341964061730,2.2588246,-2.3700907,10.300504,-0.24678937,0.24373505,0.3159698,-8.400001,17.1,-33.80625,left
12341974061678,2.2588246,-2.3700907,10.300504,-0.24678937,0.24373505,0.3159698,-9.056251,15.356251,-35.006252,left
12341963476834,2.3449662,-3.245864,10.755139,-0.28221953,0.16676609,0.26832235,-9.056251,15.356251,-35.006252,left
12341968439595,2.3449662,-3.245864,10.755139,-0.28221953,0.16676609,0.26832235,-9.056251,15.356251,-35.006252,left
12341984061626,2.3449662,-3.245864,10.755139,-0.28221953,0.16676609,0.26832235,-8.118751,15.6,-34.050003,left
12341994061574,2.3449662,-3.245864,10.755139,-0.28221953,0.16676609,0.26832235,-7.3500004,16.1625,-35.775,left
12341987482563,2.5507488,-3.3176486,10.530214,-0.20036365,0.082466744,0.18524474,-7.3500004,16.1625,-35.775,left
12341982519803,2.5507488,-3.3176486,10.530214,-0.20036365,0.082466744,0.18524474,-7.3500004,16.1625,-35.775,left
12342004061522,2.5507488,-3.3176486,10.530214,-0.20036365,0.082466744,0.18524474,-8.418751,17.1375,-34.818752,left
12342014061470,2.5507488,-3.3176486,10.530214,-0.20036365,0.082466744,0.18524474,-8.325001,15.150001,-34.331253,left
12342001592824,2.5698915,-2.7816563,10.12822,-0.092851445,0.033597562,0.14859286,-8.325001,15.150001,-34.331253,left
12342006555584,2.5698915,-2.7816563,10.12822,-0.092851445,0.033597562,0.14859286,-8.325001,15.150001,-34.331253,left
12342024061418,2.5698915,-2.7816563,10.12822,-0.092851445,0.033597562,0.14859286,-8.212501,16.1625,-34.40625,left
12342034061365,2.4741786,-2.408376,9.549157,-0.092851445,0.033597562,0.14859286,-6.99375,16.462502,-35.025,left
12342025629595,2.4741786,-2.408376,9.549157,-0.092851445,0.033597562,0.14859286,-6.99375,16.462502,-35.025,left
12342020666834,2.4741786,-2.408376,9.549157,-0.12217296,-0.0067195124,0.10949751,-6.99375,16.462502,-35.025,left
12342044061313,2.4741786,-2.408376,9.549157,-0.12217296,-0.0067195124,0.10949751,-8.19375,18.0375,-36.05625,left
12342054061261,2.4741786,-2.408376,9.549157,-0.12217296,-0.0067195124,0.10949751,-7.3500004,17.268751,-34.706253,left
12342044702563,2.3976083,-2.3461626,9.0131645,-0.12217296,-0.0067195124,0.10949751,-7.3500004,17.268751,-34.706253,left
12342039739803,2.3976083,-2.3461626,9.0131645,-0.18814635,-0.0006108648,0.0716239,-7.3500004,17.268751,-34.706253,left
12342064061209,2.3976083,-2.3461626,9.0131645,-0.18814635,-0.0006108648,0.0716239,-6.3187504,15.843751,-34.893753,left
12342058812824,2.3449662,-2.3700907,8.773883,-0.18936808,0.049480047,0.050854493,-6.3187504,15.843751,-34.893753,left
12342063775584,2.3449662,-2.3700907,8.773883,-0.18936808,0.049480047,0.050854493,-6.3187504,15.843751,-34.893753,left
12342074061157,2.3449662,-2.3700907,8.773883,-0.18936808,0.049480047,0.050854493,-7.1250005,16.575,-33.9,left
12342084061105,2.3449662,-2.3700907,8.773883,-0.18936808,0.049480047,0.050854493,-7.4625,17.681252,-35.2125,left
12342077886834,2.3449662,-2.3700907,8.773883,-0.14905101,0.11056653,0.039858926,-7.4625,17.681252,-35.2125,left
12342094061053,2.3449662,-2.3700907,8.773883,-0.14905101,0.11056653,0.039858926,-7.2000003,17.1375,-34.10625,left
12342082849595,2.2731814,-2.5232315,8.893523,-0.14905101,0.11056653,0.039858926,-7.2000003,17.1375,-34.10625,left
12342104061001,2.2731814,-2.5232315,8.893523,-0.14905101,0.11056653,0.039858926,-6.6000004,15.76875,-33.318752,left
12342101922563,2.306681,-2.7290142,9.242876,-0.14905101,0.11056653,0.039858926,-6.6000004,15.76875,-33.318752,left
12342096959803,2.306681,-2.7290142,9.242876,-0.067195125,0.14844014,0.026419902,-6.6000004,15.76875,-33.318752,left
12342114060949,2.306681,-2.7290142,9.242876,-0.067195125,0.14844014,0.026419902,-6.3187504,15.843751,-34.59375,left
12342124060897,2.306681,-2.7290142,9.242876,-0.067195125,0.14844014,0.026419902,-5.55,15.937501,-34.237503,left
12342120996574,2.2348964,-2.786442,9.501301,0.02443459,0.15332706,0.006872229,-5.55,15.937501,-34.237503,left
12342116033813,2.2348964,-2.786442,9.501301,0.02443459,0.15332706,0.006872229,-5.55,15.937501,-34.237503,left
12342134060845,2.2348964,-2.786442,9.501301,0.02443459,0.15332706,0.006872229,-5.8125,12.825001,-29.8875,left
12342144060793,2.2348964,-2.786442,9.501301,0.02443459,0.15332706,0.006872229,-8.15625,14.981251,-31.66875,left
12342140039595,2.225325,-2.4945176,9.592228,0.02443459,0.15332706,0.006872229,-8.15625,14.981251,-31.66875,left
12342135076834,2.225325,-2.4945176,9.592228,0.04886918,0.12400555,-0.004123337,-8.15625,14.981251,-31.66875,left
12342154060740,2.225325,-2.4945176,9.592228,0.04886918,0.12400555,-0.004123337,-5.4750004,13.33125,-30.91875,left
12342164060688,2.225325,-2.4945176,9.592228,0.04886918,0.12400555,-0.004123337,-6.9750004,16.44375,-33.43125,left
12342159112563,2.2731814,-2.2791636,9.544372,-0.015882485,0.08002329,0.0044287695,-6.9750004,16.44375,-33.43125,left
12342154149803,2.2731814,-2.2791636,9.544372,-0.015882485,0.08002329,0.0044287695,-6.9750004,16.44375,-33.43125,left
12342174060636,2.2731814,-2.2791636,9.544372,-0.015882485,0.08002329,0.0044287695,-5.0625,14.681251,-32.30625,left
12342184060584,2.2731814,-2.2791636,9.544372,-0.015882485,0.08002329,0.0044287695,-7.5750003,14.925,-32.475002,left
12342178186574,2.37368,-2.2408783,9.429516,-0.015882485,0.08002329,0.0044287695,-7.5750003,14.925,-32.475002,left
12342173223813,2.37368,-2.2408783,9.429516,-0.091629714,0.04214967,0.014202606,-7.5750003,14.925,-32.475002,left
12342194060532,2.37368,-2.2408783,9.429516,-0.091629714,0.04214967,0.014202606,-5.49375,13.35,-32.23125,left
12342204060480,2.37368,-2.2408783,9.429516,-0.091629714,0.04214967,0.014202606,-6.1687503,15.056251,-30.300001,left
12342197259595,2.359323,-2.475375,9.333803,-0.11606431,0.021380268,0.026419902,-6.1687503,15.056251,-30.300001,left
12342192296834,2.359323,-2.475375,9.333803,-0.11606431,0.021380268,0.026419902,-6.1687503,15.056251,-30.300001,left
12342214060428,2.359323,-2.475375,9.333803,-0.11606431,0.021380268,0.026419902,-6.1312504,14.231251,-30.7875,left
12342224060376,2.359323,-2.475375,9.333803,-0.11606431,0.021380268,0.026419902,-6.1875005,15.39375,-33.09375,left
12342216333605,2.3306093,-2.7242286,9.276375,-0.08918626,0.009162972,0.021532983,-6.1875005,15.39375,-33.09375,left
12342211370845,2.3306093,-2.7242286,9.276375,-0.08918626,0.009162972,0.021532983,-6.1875005,15.39375,-33.09375,left
12342234060324,2.3306093,-2.7242286,9.276375,-0.08918626,0.009162972,0.021532983,-5.1937504,14.812501,-32.193752,left
12342244060272,2.3306093,-2.7242286,9.276375,-0.019547673,0.007941242,0.0129808765,-5.30625,17.925001,-33.375,left
12342230443813,2.3306093,-2.7242286,9.276375,-0.019547673,0.007941242,0.0129808765,-5.30625,17.925001,-33.375,left
12342235406574,2.2731814,-2.8295128,9.262018,-0.019547673,0.007941242,0.0129808765,-5.30625,17.925001,-33.375,left
12342254060220,2.2731814,-2.8295128,9.262018,-0.019547673,0.007941242,0.0129808765,-7.4437504,16.21875,-32.8875,left
12342264060168,2.2731814,-2.8295128,9.262018,-0.019547673,0.007941242,0.0129808765,-5.34375,16.21875,-33.075,left
12342249517824,2.210968,-2.6572297,9.242876,0.028099779,0.010384701,0.0044287695,-5.34375,16.21875,-33.075,left
12342254480584,2.210968,-2.6572297,9.242876,0.028099779,0.010384701,0.0044287695,-5.34375,16.21875,-33.075,left
12342274060115,2.210968,-2.6572297,9.242876,0.028099779,0.010384701,0.0044287695,-5.9625,14.7375,-33.28125,left
12342273553605,2.172683,-2.3700907,9.285947,0.020769402,0.0140498895,-0.0004581486,-5.9625,14.7375,-33.28125,left
12342268590845,2.172683,-2.3700907,9.285947,0.020769402,0.0140498895,-0.0004581486,-5.1000004,15.825001,-33.0,left
12342284060063,2.172683,-2.3700907,9.285947,0.020769402,0.0140498895,-0.0004581486,-5.1000004,15.825001,-33.0,left
12342294060011,2.172683,-2.3700907,9.285947,0.020769402,0.0140498895,-0.0004581486,-6.3,15.825001,-33.28125,left
12342304059959,2.172683,-2.3700907,9.285947,-0.021991132,0.018936807,0.00320704,-7.0687504,16.987501,-33.6375,left
12342287664803,2.172683,-2.3700907,9.285947,-0.021991132,0.018936807,0.00320704,-7.0687504,16.987501,-33.6375,left
12342292627563,2.1535404,-2.2935205,9.276375,-0.021991132,0.018936807,0.00320704,-7.0687504,16.987501,-33.6375,left
12342314059907,2.1535404,-2.2935205,9.276375,-0.021991132,0.018936807,0.00320704,-7.3125005,17.550001,-34.443752,left
12342311670584,2.1296122,-2.43709,9.305089,-0.021991132,0.018936807,0.00320704,-7.3125005,17.550001,-34.443752,left
12342306707824,2.1296122,-2.43709,9.305089,-0.05497783,0.027488915,0.0019853106,-7.3125005,17.550001,-34.443752,left
12342324059855,2.1296122,-2.43709,9.305089,-0.05497783,0.027488915,0.0019853106,-8.137501,17.19375,-35.8125,left
12342334059803,2.1296122,-2.43709,9.305089,-0.05497783,0.027488915,0.0019853106,-8.137501,17.19375,-35.8125,left
12342330743605,2.091327,-2.652444,9.333803,-0.046425723,0.033597562,-0.009010255,-8.137501,17.19375,-35.8125,left
12342325780845,2.091327,-2.652444,9.333803,-0.046425723,0.033597562,-0.009010255,-8.137501,17.19375,-35.8125,left
12342344059751,2.091327,-2.652444,9.333803,-0.046425723,0.033597562,-0.009010255,-7.9125004,16.2,-34.3875,left
12342354059699,2.091327,-2.652444,9.333803,-0.046425723,0.033597562,-0.009010255,-7.3500004,16.1625,-35.475002,left
12342349817563,2.0434706,-2.6333013,9.443872,-0.0036651888,0.03604102,-0.016340632,-7.3500004,16.1625,-35.475002,left
12342344854803,2.0434706,-2.6333013,9.443872,-0.0036651888,0.03604102,-0.016340632,-7.3500004,16.1625,-35.475002,left
12342364059647,2.0434706,-2.6333013,9.443872,-0.0036651888,0.03604102,-0.016340632,-6.8437505,17.4375,-32.775,left
12342374059595,2.0434706,-2.6333013,9.443872,-0.0036651888,0.03604102,-0.016340632,-4.9125004,20.25,-33.7125,left
12342368890584,2.0434706,-2.461018,9.434301,0.023212861,0.027488915,-0.021227552,-4.9125004,20.25,-33.7125,left
12342363927824,2.0434706,-2.461018,9.434301,0.023212861,0.027488915,-0.021227552,-4.9125004,20.25,-33.7125,left
12342384059543,2.0434706,-2.461018,9.434301,0.023212861,0.027488915,-0.021227552,-6.8437505,16.3125,-33.2625,left
12342394059490,2.0434706,-2.461018,9.434301,0.023212861,0.027488915,-0.021227552,-6.4500003,17.23125,-34.4625,left
12342387964595,2.0721843,-2.3078775,9.352945,0.0,0.023823727,-0.0151189035,-6.4500003,17.23125,-34.4625,left
12342383001834,2.0721843,-2.3078775,9.352945,0.0,0.023823727,-0.0151189035,-6.4500003,17.23125,-34.4625,left
12342404059438,2.0721843,-2.3078775,9.352945,0.0,0.023823727,-0.0151189035,-6.43125,17.53125,-35.081253,left
12342414059386,2.0721843,-2.3078775,9.352945,0.0,0.023823727,-0.0151189035,-5.5875,18.16875,-33.581253,left
12342402074803,2.091327,-2.4035904,9.305089,-0.041538805,0.026267186,-0.010231985,-5.5875,18.16875,-33.581253,left
12342407037563,2.091327,-2.4035904,9.305089,-0.041538805,0.026267186,-0.010231985,-5.5875,18.16875,-33.581253,left
12342424059334,2.091327,-2.4035904,9.305089,-0.041538805,0.026267186,-0.010231985,-5.4375,16.931252,-33.581253,left
12342434059282,2.091327,-2.4035904,9.305089,-0.041538805,0.026267186,-0.010231985,-7.1250005,16.59375,-34.912502,left
12342426111574,2.105684,-2.5328028,9.300303,-0.041538805,0.026267186,-0.010231985,-7.1250005,16.59375,-34.912502,left
12342421148813,2.105684,-2.5328028,9.300303,-0.045203995,0.034819294,-0.011453714,-7.7625003,17.475,-34.050003,left
12342444059230,2.105684,-2.5328028,9.300303,-0.045203995,0.034819294,-0.011453714,-7.7625003,17.475,-34.050003,left
12342454059178,2.105684,-2.5328028,9.300303,-0.045203995,0.034819294,-0.011453714,-5.9812503,18.862501,-34.85625,left
12342445184595,2.105684,-2.5040889,9.443872,-0.045203995,0.034819294,-0.011453714,-5.9812503,18.862501,-34.85625,left
12342440221834,2.105684,-2.5040889,9.443872,-0.0097738365,0.033597562,-0.0065667965,-5.9812503,18.862501,-34.85625,left
12342464059126,2.105684,-2.5040889,9.443872,-0.0097738365,0.033597562,-0.0065667965,-6.24375,16.575,-34.95,left
12342474059074,2.0865414,-2.4705894,9.506086,-0.0097738365,0.033597562,-0.0065667965,-6.43125,16.10625,-34.78125,left
12342464258605,2.0865414,-2.4705894,9.506086,-0.0097738365,0.033597562,-0.0065667965,-6.43125,16.10625,-34.78125,left
12342459295845,2.0865414,-2.4705894,9.506086,0.019547673,0.025045456,0.00076358096,-6.43125,16.10625,-34.78125,left
12342484059022,2.0865414,-2.4705894,9.506086,0.019547673,0.025045456,0.00076358096,-7.5750003,16.6875,-35.11875,left
12342478338813,2.0434706,-2.4227328,9.4534445,0.0048869182,0.009162972,0.009315688,-7.5750003,16.6875,-35.11875,left
12342483301574,2.0434706,-2.4227328,9.4534445,0.0048869182,0.009162972,0.009315688,-7.5750003,16.6875,-35.11875,left
12342494058970,2.0434706,-2.4227328,9.4534445,0.0048869182,0.009162972,0.009315688,-6.2812505,17.400002,-34.3125,left
12342504058918,2.0434706,-2.4227328,9.4534445,0.0048869182,0.009162972,0.009315688,-5.7000003,18.581251,-33.487503,left
12342497411834,2.0434706,-2.4227328,9.4534445,-0.034208428,-0.005497783,0.019089524,-6.99375,15.356251,-35.79375,left
12342514058865,2.0434706,-2.4227328,9.4534445,-0.034208428,-0.005497783,0.019089524,-6.99375,15.356251,-35.79375,left
12342502374595,2.0434706,-2.4705894,9.319446,-0.034208428,-0.005497783,0.019089524,-6.99375,15.356251,-35.79375,left
12342524058813,2.0434706,-2.4705894,9.319446,-0.034208428,-0.005497783,0.019089524,-5.71875,18.618752,-34.800003,left
12342516485845,2.053042,-2.528017,9.242876,-0.062308207,-0.009162972,0.027641632,-5.71875,18.618752,-34.800003,left
12342521448605,2.053042,-2.528017,9.242876,-0.062308207,-0.009162972,0.027641632,-5.71875,18.618752,-34.800003,left
12342534058761,2.053042,-2.528017,9.242876,-0.062308207,-0.009162972,0.027641632,-6.9375005,16.725,-33.75,left
12342544058709,2.053042,-2.528017,9.242876,-0.062308207,-0.009162972,0.027641632,-7.0312505,14.606251,-34.125,left
12342540521574,2.1008983,-2.652444,9.262018,-0.062308207,-0.009162972,0.027641632,-7.0312505,14.606251,-34.125,left
12342535558813,2.1008983,-2.652444,9.262018,-0.042760536,-0.0030543238,0.023976443,-8.45625,16.85625,-35.381252,left
12342554058657,2.1008983,-2.652444,9.262018,-0.042760536,-0.0030543238,0.023976443,-8.45625,16.85625,-35.381252,left
12342564058605,2.1008983,-2.652444,9.262018,-0.042760536,-0.0030543238,0.023976443,-4.2937503,16.35,-32.9625,left
12342559595584,2.0817556,-2.62373,9.28116,0.0012217296,0.0067195124,0.015424335,-4.2937503,16.35,-32.9625,left
12342554632824,2.0817556,-2.62373,9.28116,0.0012217296,0.0067195124,0.015424335,-4.2937503,16.35,-32.9625,left
12342574058553,2.0817556,-2.62373,9.28116,0.0012217296,0.0067195124,0.015424335,-6.3375,17.118752,-35.175003,left
12342584058501,2.0817556,-2.62373,9.28116,0.0012217296,0.0067195124,0.015424335,-5.90625,16.575,-33.318752,left
12342578668605,2.07697,-2.5232315,9.305089,0.014660755,0.009162972,0.014202606,-7.8,17.19375,-34.4625,left
12342573705845,2.07697,-2.5232315,9.305089,0.014660755,0.009162972,0.014202606,-7.8,17.19375,-34.4625,left
12342594058449,2.07697,-2.5232315,9.305089,0.014660755,0.009162972,0.014202606,-7.8,17.19375,-34.4625,left
12342604058397,2.07697,-2.5232315,9.305089,0.014660755,0.009162972,0.014202606,-5.9625,16.3125,-34.3125,left
12342597742563,2.07697,-2.5375884,9.247662,0.014660755,0.009162972,0.014202606,-5.9625,16.3125,-34.3125,left
12342592779803,2.07697,-2.5375884,9.247662,-0.0048869182,0.0067195124,0.015424335,-5.9625,16.3125,-34.3125,left
12342614058345,2.07697,-2.5375884,9.247662,-0.0048869182,0.0067195124,0.015424335,-6.8812504,17.456251,-34.537502,left
12342624058293,2.07697,-2.5375884,9.247662,-0.0048869182,0.0067195124,0.015424335,-7.33125,16.143751,-35.04375,left
12342611852824,2.0434706,-2.6333013,9.218947,-0.021991132,0.0042760535,0.023976443,-7.33125,16.143751,-35.04375,left
12342616815584,2.0434706,-2.6333013,9.218947,-0.021991132,0.0042760535,0.023976443,-7.33125,16.143751,-35.04375,left
12342634058240,2.0434706,-2.6333013,9.218947,-0.021991132,0.0042760535,0.023976443,-5.7000003,18.6,-34.068752,left
12342630926834,2.0434706,-2.6333013,9.218947,-0.02443459,0.0018325944,0.027641632,-5.26875,15.675,-33.45,left
12342644058188,2.0434706,-2.6333013,9.218947,-0.02443459,0.0018325944,0.027641632,-5.26875,15.675,-33.45,left
12342635889595,2.0817556,-2.6428726,9.195019,-0.02443459,0.0018325944,0.027641632,-5.26875,15.675,-33.45,left
12342654058136,2.0817556,-2.6428726,9.195019,-0.02443459,0.0018325944,0.027641632,-6.2250004,18.150002,-35.98125,left
12342664058084,2.1248264,-2.6189444,9.218947,-0.02443459,0.0018325944,0.027641632,-7.3125005,17.212502,-32.381252,left
12342654931574,2.1248264,-2.6189444,9.218947,-0.02443459,0.0018325944,0.027641632,-7.3125005,17.212502,-32.381252,left
12342649968813,2.1248264,-2.6189444,9.218947,-0.020769402,0.005497783,0.03008509,-7.3125005,17.212502,-32.381252,left
12342674058032,2.1248264,-2.6189444,9.218947,-0.020769402,0.005497783,0.03008509,-5.7375,19.743752,-34.78125,left
12342669042824,2.1391835,-2.62373,9.247662,-0.014660755,0.009162972,0.028863361,-5.7375,19.743752,-34.78125,left
12342674005584,2.1391835,-2.62373,9.247662,-0.014660755,0.009162972,0.028863361,-5.7375,19.743752,-34.78125,left
12342694057928,2.1391835,-2.62373,9.247662,-0.014660755,0.009162972,0.028863361,-6.2812505,17.71875,-35.943752,left
12342684057980,2.1391835,-2.62373,9.247662,-0.014660755,0.009162972,0.028863361,-6.2812505,17.71875,-35.943752,left
12342693078605,2.1343977,-2.638087,9.300303,-0.0061086477,0.005497783,0.025198173,-6.2812505,17.71875,-35.943752,left
12342688115845,2.1343977,-2.638087,9.300303,-0.0061086477,0.005497783,0.025198173,-6.2812505,17.71875,-35.943752,left
12342704057876,2.1343977,-2.638087,9.300303,-0.0061086477,0.005497783,0.025198173,-5.3625,16.237501,-34.3875,left
12342714057824,2.1343977,-2.638087,9.300303,-0.0061086477,0.005497783,0.025198173,-6.3,17.41875,-35.193752,left
12342707189803,2.1774685,-2.5998018,9.329018,0.0012217296,-0.0006108648,0.016646065,-6.3,17.41875,-35.193752,left
12342712152563,2.1774685,-2.5998018,9.329018,0.0012217296,-0.0006108648,0.016646065,-6.3,17.41875,-35.193752,left
12342724057772,2.1774685,-2.5998018,9.329018,0.0012217296,-0.0006108648,0.016646065,-8.19375,16.44375,-34.443752,left
12342734057720,2.1774685,-2.5998018,9.329018,0.0012217296,-0.0006108648,0.016646065,-6.3750005,16.6875,-35.1375,left
12342731225584,2.1918256,-2.4945176,9.309875,0.0012217296,-0.0006108648,0.016646065,-6.3750005,16.6875,-35.1375,left
12342726262824,2.1918256,-2.4945176,9.309875,0.0024434591,0.0030543238,0.011759147,-6.3750005,16.6875,-35.1375,left
12342744057668,2.1918256,-2.4945176,9.309875,0.0024434591,0.0030543238,0.011759147,-7.0125003,17.587502,-34.706253,left
12342754057615,2.1918256,-2.4945176,9.309875,0.0024434591,0.0030543238,0.011759147,-6.5437503,16.2,-32.925003,left
12342745336834,2.2205393,-2.4035904,9.295518,-0.0012217296,0.010384701,0.008093959,-6.5437503,16.2,-32.925003,left
12342764057563,2.2205393,-2.4035904,9.295518,-0.0012217296,0.010384701,0.008093959,-6.99375,17.56875,-33.393753,left
12342750299595,2.2205393,-2.4035904,9.295518,0.0024434591,0.0030543238,0.011759147,-6.5437503,16.2,-32.925003,left
12342774057511,2.2205393,-2.4035904,9.295518,-0.0012217296,0.010384701,0.008093959,-6.2812505,15.806251,-32.550003,left
12342764409803,2.210968,-2.4275186,9.343374,-0.0097738365,0.016493348,0.006872229,-6.2812505,15.806251,-32.550003,left
12342769372563,2.210968,-2.4275186,9.343374,-0.0097738365,0.016493348,0.006872229,-6.2812505,15.806251,-32.550003,left
12342784057459,2.210968,-2.4275186,9.343374,-0.0097738365,0.016493348,0.006872229,-6.4687505,15.337501,-31.66875,left
12342794057407,2.210968,-2.4275186,9.343374,-0.0097738365,0.016493348,0.006872229,-7.2375,12.243751,-30.431252,left
12342788446574,2.172683,-2.5232315,9.376874,-0.012217295,0.01282816,0.00320704,-7.2375,12.243751,-30.431252,left
12342783483813,2.172683,-2.5232315,9.376874,-0.012217295,0.01282816,0.00320704,-7.2375,12.243751,-30.431252,left
12342804057355,2.172683,-2.5232315,9.376874,-0.012217295,0.01282816,0.00320704,-5.45625,16.3125,-31.931252,left
12342814057303,2.172683,-2.5232315,9.376874,-0.012217295,0.01282816,0.00320704,-7.0125003,16.143751,-33.393753,left
12342807489595,2.172683,-2.556731,9.333803,-0.012217295,0.01282816,0.00320704,-7.0125003,16.143751,-33.393753,left
12342802526834,2.172683,-2.556731,9.333803,-0.010995566,0.0030543238,0.00076358096,-7.0125003,16.143751,-33.393753,left
12342824057251,2.172683,-2.556731,9.333803,-0.010995566,0.0030543238,0.00076358096,-6.5062504,16.48125,-32.943752,left
12342834057199,2.172683,-2.556731,9.333803,-0.010995566,0.0030543238,0.00076358096,-6.0375004,16.6875,-32.756252,left
12342826562563,2.1678972,-2.5998018,9.285947,-0.010995566,0.0030543238,0.00076358096,-6.0375004,16.6875,-32.756252,left
12342821599803,2.1678972,-2.5998018,9.285947,-0.020769402,-0.0030543238,0.0056504994,-6.0375004,16.6875,-32.756252,left
12342844057147,2.1678972,-2.5998018,9.285947,-0.020769402,-0.0030543238,0.0056504994,-6.3750005,16.368752,-33.506252,left
12342854057095,2.1678972,-2.5998018,9.285947,-0.020769402,-0.0030543238,0.0056504994,-4.8187504,17.00625,-33.525,left
12342845636574,2.1535404,-2.6907291,9.214162,-0.039095346,-0.005497783,0.0044287695,-4.8187504,17.00625,-33.525,left
12342840673813,2.1535404,-2.6907291,9.214162,-0.039095346,-0.005497783,0.0044287695,-4.8187504,17.00625,-33.525,left
12342864057043,2.1535404,-2.6907291,9.214162,-0.039095346,-0.005497783,0.0044287695,-4.2000003,15.806251,-33.037502,left
12342874056990,2.1535404,-2.6907291,9.214162,-0.039095346,-0.005497783,0.0044287695,-6.99375,18.0375,-35.775,left
12342864709595,2.143969,-2.7960134,9.23809,-0.039095346,-0.005497783,0.0044287695,-6.99375,18.0375,-35.775,left
12342859746834,2.143969,-2.7960134,9.23809,-0.02932151,-0.0006108648,0.0019853106,-6.99375,18.0375,-35.775,left
12342884056938,2.143969,-2.7960134,9.23809,-0.02932151,-0.0006108648,0.0019853106,-5.86875,15.750001,-34.10625,left
12342883783605,2.0961127,-2.7433712,9.23809,-0.02932151,-0.0006108648,0.0019853106,-5.86875,15.750001,-34.10625,left
12342878820845,2.0961127,-2.7433712,9.23809,0.0024434591,0.0067195124,-0.004123337,-5.86875,15.750001,-34.10625,left
12342894056886,2.0961127,-2.7433712,9.23809,0.0024434591,0.0067195124,-0.004123337,-6.20625,18.112501,-33.9375,left
12342904056834,2.0961127,-2.7433712,9.23809,0.0024434591,0.0067195124,-0.004123337,-5.9812503,17.1,-31.781252,left
12342902856574,2.07697,-2.5663023,9.28116,0.0024434591,0.0067195124,-0.004123337,-5.9812503,17.1,-31.781252,left
12342897893813,2.07697,-2.5663023,9.28116,0.02443459,0.0140498895,-0.0029016077,-5.9812503,17.1,-31.781252,left
12342914056782,2.07697,-2.5663023,9.28116,0.02443459,0.0140498895,-0.0029016077,-7.0312505,15.712501,-32.643753,left
12342924056730,2.07697,-2.5663023,9.28116,0.02443459,0.0140498895,-0.0029016077,-6.1312504,15.675,-32.100002,left
12342921930584,2.0817556,-2.4945176,9.295518,0.0097738365,0.0140498895,-0.0029016077,-6.1312504,15.675,-32.100002,left
12342916967824,2.0817556,-2.4945176,9.295518,0.0097738365,0.0140498895,-0.0029016077,-5.49375,14.45625,-30.88125,left
12342934056678,2.0817556,-2.4945176,9.295518,0.0097738365,0.0140498895,-0.0029016077,-5.49375,14.45625,-30.88125,left
12342944056626,2.0817556,-2.4945176,9.295518,0.0097738365,0.0140498895,-0.0029016077,-6.9375005,15.618751,-34.5,left
12342941003605,2.0673988,-2.556731,9.271589,0.0097738365,0.0140498895,-0.0029016077,-6.9375005,15.618751,-34.5,left
12342936040845,2.0673988,-2.556731,9.271589,-0.010995566,0.016493348,0.0019853106,-6.9375005,15.618751,-34.5,left
12342954056574,2.0673988,-2.556731,9.271589,-0.010995566,0.016493348,0.0019853106,-6.6937504,14.75625,-32.2125,left
12342964056522,2.0673988,-2.556731,9.271589,-0.010995566,0.016493348,0.0019853106,-6.0937505,14.19375,-29.325,left
12342960077563,2.0578275,-2.6141586,9.295518,-0.013439025,0.017715078,0.0019853106,-6.0937505,14.19375,-29.325,left
12342955114803,2.0578275,-2.6141586,9.295518,-0.013439025,0.017715078,0.0019853106,-6.0937505,14.19375,-29.325,left
12342974056470,2.0578275,-2.6141586,9.295518,-0.013439025,0.017715078,0.0019853106,-4.78125,17.4375,-33.862503,left
12342984056418,2.0578275,-2.6141586,9.295518,-0.013439025,0.017715078,0.0019853106,-6.8812504,17.456251,-34.10625,left
12342979120584,2.062613,-2.556731,9.329018,0.014660755,0.017715078,0.0044287695,-6.8812504,17.456251,-34.10625,left
12342974157824,2.062613,-2.556731,9.329018,0.014660755,0.017715078,0.0044287695,-6.8812504,17.456251,-34.10625,left
12342994056365,2.062613,-2.556731,9.329018,0.014660755,0.017715078,0.0044287695,-5.15625,17.00625,-35.30625,left
12343004056313,2.062613,-2.556731,9.329018,0.014660755,0.017715078,0.0044287695,-5.68125,17.79375,-35.8875,left
12342998193605,2.062613,-2.5232315,9.333803,0.018325943,0.01527162,0.0056504994,-5.68125,17.79375,-35.8875,left
12342993230845,2.062613,-2.5232315,9.333803,0.018325943,0.01527162,0.0056504994,-5.68125,17.79375,-35.8875,left
12343014056261,2.062613,-2.5232315,9.333803,0.018325943,0.01527162,0.0056504994,-6.61875,18.65625,-35.34375,left
12343024056209,2.062613,-2.5232315,9.333803,0.018325943,0.01527162,0.0056504994,-6.3,17.1,-33.5625,left
12343017267563,2.07697,-2.5423741,9.309875,0.018325943,0.01527162,0.0056504994,-6.3,17.1,-33.5625,left
12343012304803,2.07697,-2.5423741,9.309875,-0.008552107,0.011606431,0.0019853106,-6.8437505,17.737501,-34.125,left
12343034056157,2.07697,-2.5423741,9.309875,-0.008552107,0.011606431,0.0019853106,-6.8437505,17.737501,-34.125,left
12343044056105,2.07697,-2.5423741,9.309875,-0.008552107,0.011606431,0.0019853106,-5.6625004,17.456251,-33.80625,left
12343036340584,2.062613,-2.5950162,9.31466,-0.013439025,0.0140498895,0.00076358096,-5.6625004,17.456251,-33.80625,left
12343031377824,2.062613,-2.5950162,9.31466,-0.013439025,0.0140498895,0.00076358096,-5.6625004,17.456251,-33.80625,left
12343054056053,2.062613,-2.5950162,9.31466,-0.013439025,0.0140498895,0.00076358096,-6.95625,18.0,-34.0125,left
12343064056001,2.062613,-2.5950162,9.31466,-0.013439025,0.0140498895,0.00076358096,-6.8625,17.775002,-35.5875,left
12343050451834,2.0721843,-2.609373,9.333803,0.0024434591,0.016493348,0.00076358096,-6.8625,17.775002,-35.5875,left
12343055414595,2.0721843,-2.609373,9.333803,0.0024434591,0.016493348,0.00076358096,-6.8625,17.775002,-35.5875,left
12343074055949,2.0721843,-2.609373,9.333803,0.0024434591,0.016493348,0.00076358096,-6.3750005,16.6875,-34.537502,left
12343084055897,2.0721843,-2.609373,9.333803,0.0024434591,0.016493348,0.00076358096,-5.925,16.59375,-34.631252,left
12343069524803,2.0721843,-2.609373,9.333803,0.0061086477,0.018936807,-0.0004581486,-5.925,16.59375,-34.631252,left
12343074487563,2.0865414,-2.6333013,9.31466,0.0061086477,0.018936807,-0.0004581486,-5.925,16.59375,-34.631252,left
12343094055845,2.0865414,-2.6333013,9.31466,0.0061086477,0.018936807,-0.0004581486,-5.0062504,16.5375,-33.075,left
12343093561574,2.0721843,-2.609373,9.28116,0.0012217296,0.022601997,-0.0004581486,-5.0062504,16.5375,-33.075,left
12343088598813,2.0721843,-2.609373,9.28116,0.0012217296,0.022601997,-0.0004581486,-5.0062504,16.5375,-33.075,left
12343104055793,2.0721843,-2.609373,9.28116,0.0012217296,0.022601997,-0.0004581486,-6.0750003,16.725,-34.800003,left
12343114055740,2.0721843,-2.609373,9.28116,0.0012217296,0.022601997,-0.0004581486,-6.8812504,17.456251,-34.537502,left
12343107671834,2.062613,-2.5950162,9.271589,0.0012217296,0.023823727,-0.0004581486,-6.3375,17.1375,-35.8875,left
12343124055688,2.062613,-2.5950162,9.271589,0.0012217296,0.023823727,-0.0004581486,-6.3375,17.1375,-35.8875,left
12343112634595,2.062613,-2.5950162,9.271589,0.0012217296,0.023823727,-0.0004581486,-6.3375,17.1375,-35.8875,left
12343134055636,2.062613,-2.5950162,9.271589,0.0012217296,0.023823727,-0.0004581486,-6.3562503,16.66875,-33.525,left
12343126745845,2.062613,-2.5950162,9.271589,0.0,0.025045456,-0.004123337,-6.3562503,16.66875,-33.525,left
12343144055584,2.062613,-2.5950162,9.271589,0.0,0.025045456,-0.004123337,-5.2312503,18.65625,-33.73125,left
12343131708605,2.0673988,-2.5615165,9.285947,0.0,0.025045456,-0.004123337,-5.2312503,18.65625,-33.73125,left
12343154055532,2.0673988,-2.5615165,9.285947,0.0,0.025045456,-0.004123337,-6.8437505,17.737501,-34.125,left
12343150751574,2.07697,-2.585445,9.295518,0.0,0.025045456,-0.004123337,-6.8437505,17.737501,-34.125,left
12343164055480,2.07697,-2.585445,9.295518,-0.0012217296,0.023823727,-0.005345067,-8.0625,14.906251,-34.85625,left
12343174055428,2.07697,-2.585445,9.295518,-0.0012217296,0.023823727,-0.005345067,-8.0625,14.906251,-34.85625,left
12343145788813,2.07697,-2.585445,9.295518,-0.0012217296,0.023823727,-0.005345067,-8.0625,14.906251,-34.85625,left
12343169824595,2.0961127,-2.6045876,9.266804,0.0036651888,0.022601997,-0.007788526,-8.0625,14.906251,-34.85625,left
12343184055376,2.0961127,-2.6045876,9.266804,0.0036651888,0.022601997,-0.007788526,-6.0937505,16.44375,-34.78125,left
12343194055324,2.0673988,-2.5950162,9.300303,0.0097738365,0.022601997,-0.005345067,-6.0937505,16.44375,-34.78125,left
12343188898605,2.0673988,-2.5950162,9.300303,0.0097738365,0.022601997,-0.005345067,-5.4750004,16.331251,-32.23125,left
12343204055272,2.0673988,-2.5950162,9.300303,0.0097738365,0.022601997,-0.005345067,-3.6562502,13.556251,-30.73125,left
12343207971574,2.0482562,-2.5806592,9.285947,0.0097738365,0.022601997,-0.005345067,-3.6562502,13.556251,-30.73125,left
12343214055220,2.0482562,-2.5806592,9.285947,0.0097738365,0.022601997,-0.005345067,-3.6562502,13.556251,-30.73125,left
12343203008813,2.0482562,-2.5806592,9.285947,0.0073303776,0.020158539,-0.005345067,-7.0312505,17.2875,-33.956253,left
12343183935845,2.0673988,-2.5950162,9.300303,0.0097738365,0.022601997,-0.005345067,-3.6562502,13.556251,-30.73125,left
12343234055115,2.0673988,-2.5950162,9.290732,0.0073303776,0.020158539,-0.005345067,-7.0312505,17.2875,-33.956253,left
12343227045584,2.0673988,-2.5950162,9.290732,-0.0024434591,0.016493348,-0.0029016077,-7.0312505,17.2875,-33.956253,left
12343222082824,2.0673988,-2.5950162,9.290732,-0.0024434591,0.016493348,-0.0029016077,-6.0,15.543751,-32.2125,left
12343244055063,2.0673988,-2.5950162,9.290732,-0.0024434591,0.016493348,-0.0029016077,-6.0,15.543751,-32.2125,left
12343164861834,2.0673988,-2.5950162,9.290732,-0.0024434591,0.016493348,-0.0029016077,-6.0,15.543751,-32.2125,left
12343224055168,2.0482562,-2.5806592,9.285947,0.0073303776,0.020158539,-0.005345067,-7.0312505,17.2875,-33.956253,left
12343254055011,2.0386848,-2.6620152,9.276375,-0.0024434591,0.016493348,-0.0029016077,-3.5625002,15.675,-30.337502,left
12343246118605,2.0386848,-2.6620152,9.276375,-0.008552107,0.01282816,0.00076358096,-3.5625002,15.675,-30.337502,left
12343241155845,2.0386848,-2.6620152,9.276375,-0.008552107,0.01282816,0.00076358096,-3.5625002,15.675,-30.337502,left
12343264054959,2.0386848,-2.6620152,9.276375,-0.008552107,0.01282816,0.00076358096,-5.175,14.775001,-30.88125,left
12343274054907,2.0386848,-2.6620152,9.276375,-0.008552107,0.01282816,0.00076358096,-2.7562501,10.012501,-25.331251,left
12343260229803,2.0386848,-2.6620152,9.276375,-0.0012217296,0.011606431,-0.0016798781,-2.7562501,10.012501,-25.331251,left
12343265192563,2.053042,-2.652444,9.266804,-0.0012217296,0.011606431,-0.0016798781,-2.7562501,10.012501,-25.331251,left
12343284054855,2.053042,-2.652444,9.266804,-0.0012217296,0.011606431,-0.0016798781,-4.51875,12.431251,-30.000002,left
12343294054803,2.053042,-2.652444,9.266804,-0.0012217296,0.011606431,-0.0016798781,-5.1937504,14.493751,-30.843752,left
12343279302824,2.053042,-2.652444,9.266804,0.0097738365,0.011606431,-0.0029016077,-5.1937504,14.493751,-30.843752,left
12343284265584,2.053042,-2.609373,9.295518,0.0097738365,0.011606431,-0.0029016077,-5.1937504,14.493751,-30.843752,left
12343304054751,2.053042,-2.609373,9.295518,0.0097738365,0.011606431,-0.0029016077,-5.45625,15.20625,-32.98125,left
12343298345845,2.053042,-2.609373,9.295518,0.012217295,0.011606431,-0.005345067,-5.6062503,14.868751,-31.087502,left
12343314054699,2.024328,-2.5806592,9.276375,0.012217295,0.011606431,-0.005345067,-5.6062503,14.868751,-31.087502,left
12343303308605,2.024328,-2.5806592,9.276375,0.012217295,0.011606431,-0.005345067,-5.6062503,14.868751,-31.087502,left
12343324054647,2.024328,-2.5806592,9.276375,0.012217295,0.011606431,-0.005345067,-5.6062503,14.868751,-31.087502,left
12343317418813,2.024328,-2.5806592,9.276375,0.008552107,0.01282816,-0.005345067,-5.6062503,14.868751,-31.087502,left
12343334054595,1.995614,-2.5519454,9.309875,0.008552107,0.01282816,-0.005345067,-5.0625,15.7875,-31.25625,left
12343322381574,1.995614,-2.5519454,9.309875,0.008552107,0.01282816,-0.005345067,-5.0625,15.7875,-31.25625,left
12343344054543,1.995614,-2.5519454,9.309875,0.008552107,0.01282816,-0.005345067,-6.8625,13.181251,-32.662502,left
12343341455584,2.0147567,-2.5328028,9.329018,0.0073303776,0.011606431,-0.005345067,-6.8625,13.181251,-32.662502,left
12343354054490,2.0147567,-2.5328028,9.329018,0.0073303776,0.011606431,-0.005345067,-4.8375,15.281251,-32.49375,left
12343336492824,2.0147567,-2.5328028,9.329018,0.0073303776,0.011606431,-0.005345067,-4.8375,15.281251,-32.49375,left
12343364054438,2.0147567,-2.5328028,9.329018,0.0073303776,0.011606431,-0.005345067,-5.1000004,16.95,-32.53125,left
12343355565845,2.0147567,-2.5328028,9.329018,-0.0036651888,0.009162972,-0.004123337,-5.1000004,16.95,-32.53125,left
12343360528605,2.009971,-2.5615165,9.324232,-0.0036651888,0.009162972,-0.004123337,-5.1000004,16.95,-32.53125,left
12343374054386,2.009971,-2.5615165,9.324232,-0.0036651888,0.009162972,-0.004123337,-5.5125003,13.35,-32.5125,left
12343384054334,2.009971,-2.5615165,9.324232,-0.0036651888,0.009162972,-0.004123337,-5.175,16.368752,-32.49375,left
12343379602563,1.9908284,-2.609373,9.305089,-0.0036651888,0.009162972,-0.004123337,-5.175,16.368752,-32.49375,left
12343374639803,1.9908284,-2.609373,9.305089,-0.013439025,0.007941242,-0.004123337,-5.175,16.368752,-32.49375,left
12343394054282,1.9908284,-2.609373,9.305089,-0.013439025,0.007941242,-0.004123337,-5.08125,14.38125,-31.987501,left
12343404054230,1.9908284,-2.609373,9.305089,-0.013439025,0.007941242,-0.004123337,-4.875,14.83125,-31.875002,left
12343393712824,2.0195422,-2.6572297,9.295518,-0.0012217296,0.009162972,-0.0065667965,-4.875,14.83125,-31.875002,left
12343398675584,2.0195422,-2.6572297,9.295518,-0.0012217296,0.009162972,-0.0065667965,-4.875,14.83125,-31.875002,left
12343414054178,2.0195422,-2.6572297,9.295518,-0.0012217296,0.009162972,-0.0065667965,-5.4187503,13.89375,-30.675001,left
12343424054126,2.0195422,-2.6572297,9.295518,-0.0012217296,0.009162972,-0.0065667965,-5.34375,16.2,-32.34375,left
12343417749595,2.0147567,-2.6333013,9.295518,0.010995566,0.011606431,-0.007788526,-5.34375,16.2,-32.34375,left
12343412786834,2.0147567,-2.6333013,9.295518,0.010995566,0.011606431,-0.007788526,-5.34375,16.2,-32.34375,left
12343436822563,1.9908284,-2.62373,9.309875,0.010995566,0.011606431,-0.007788526,-5.34375,16.2,-32.34375,left
12343431859803,1.9908284,-2.62373,9.309875,0.015882485,0.0140498895,-0.009010255,-5.34375,16.2,-32.34375,left
12343450933813,1.9908284,-2.62373,9.309875,0.018325943,0.01282816,-0.010231985,-7.8,17.212502,-34.7625,left
12343434054074,1.9908284,-2.62373,9.309875,0.018325943,0.01282816,-0.010231985,-7.8,17.212502,-34.7625,left
12343444054022,1.9908284,-2.62373,9.309875,0.018325943,0.01282816,-0.010231985,-6.1312504,17.268751,-33.7125,left
12343454053970,1.9908284,-2.62373,9.309875,0.018325943,0.01282816,-0.010231985,-6.20625,18.112501,-34.66875,left
12343464053918,1.9908284,-2.62373,9.309875,0.018325943,0.01282816,-0.010231985,-6.20625,18.112501,-34.66875,left
12343474053865,1.9908284,-2.62373,9.309875,0.018325943,0.01282816,-0.010231985,-5.9437504,17.71875,-34.3125,left
12343455896574,1.9908284,-2.5710878,9.324232,0.018325943,0.01282816,-0.010231985,-5.9437504,17.71875,-34.3125,left
12343474939595,1.9908284,-2.4993033,9.333803,0.018325943,0.01282816,-0.010231985,-5.9437504,17.71875,-34.3125,left
12343469976834,1.9908284,-2.4993033,9.333803,0.018325943,0.01282816,-0.010231985,-5.9437504,17.71875,-34.3125,left
12343494053761,1.9908284,-2.4993033,9.333803,0.018325943,0.01282816,-0.010231985,-7.3125005,17.53125,-34.0125,left
12343484053813,1.9716859,-2.489732,9.305089,0.018325943,0.01282816,-0.010231985,-7.3125005,17.53125,-34.0125,left
12343504053709,1.9716859,-2.489732,9.305089,0.018325943,0.01282816,-0.010231985,-7.3125005,17.53125,-34.0125,left
12343494012563,1.9716859,-2.489732,9.305089,0.018325943,0.01282816,-0.010231985,-7.3125005,17.53125,-34.0125,left
12343489049803,1.9716859,-2.489732,9.305089,0.0073303776,0.009162972,-0.007788526,-4.8375,18.300001,-34.537502,left
12343514053657,1.9716859,-2.489732,9.305089,0.0073303776,0.009162972,-0.007788526,-4.8375,18.300001,-34.537502,left
12343513086574,1.9621146,-2.5663023,9.285947,-0.0073303776,0.005497783,-0.0016798781,-4.8375,18.300001,-34.537502,left
12343508123813,1.9621146,-2.5663023,9.285947,-0.0073303776,0.005497783,-0.0016798781,-4.8375,18.300001,-34.537502,left
12343524053605,1.9621146,-2.5663023,9.285947,-0.0073303776,0.005497783,-0.0016798781,-7.3500004,17.25,-33.99375,left
12343534053553,1.9621146,-2.5663023,9.285947,-0.0073303776,0.005497783,-0.0016798781,-7.3500004,17.25,-33.99375,left
12343532159595,1.995614,-2.6476583,9.290732,-0.0097738365,0.0042760535,-0.0016798781,-5.925,17.7,-33.28125,left
12343527196834,1.995614,-2.6476583,9.290732,-0.0097738365,0.0042760535,-0.0016798781,-5.925,17.7,-33.28125,left
12343544053501,1.995614,-2.6476583,9.290732,-0.0097738365,0.0042760535,-0.0016798781,-5.925,17.7,-33.28125,left
12343554053449,1.995614,-2.6476583,9.290732,-0.0097738365,0.0042760535,-0.0016798781,-5.1375003,15.225,-31.500002,left
12343551233605,2.0482562,-2.652444,9.319446,0.015882485,0.007941242,-0.011453714,-5.1375003,15.225,-31.500002,left
12343546270845,2.0482562,-2.652444,9.319446,0.015882485,0.007941242,-0.011453714,-5.1375003,15.225,-31.500002,left
12343564053397,2.0482562,-2.652444,9.319446,0.015882485,0.007941242,-0.011453714,-4.8375,15.262501,-31.9125,left
12343574053345,2.0482562,-2.652444,9.319446,0.015882485,0.007941242,-0.011453714,-6.0375004,15.58125,-33.825,left
12343570306574,2.0434706,-2.5423741,9.372088,0.015882485,0.007941242,-0.011453714,-6.0375004,15.58125,-33.825,left
12343565343813,2.0434706,-2.5423741,9.372088,0.041538805,0.01282816,-0.021227552,-6.0375004,15.58125,-33.825,left
12343584053293,2.0434706,-2.5423741,9.372088,0.041538805,0.01282816,-0.021227552,-7.2000003,17.118752,-33.80625,left
12343594053240,2.024328,-2.4418755,9.391231,0.041538805,0.01282816,-0.021227552,-7.2000003,17.118752,-33.80625,left
12343589380584,2.024328,-2.4418755,9.391231,0.037873615,0.021380268,-0.02611447,-7.2000003,17.118752,-33.80625,left
12343584417824,2.024328,-2.4418755,9.391231,0.037873615,0.021380268,-0.02611447,-7.2000003,17.118752,-33.80625,left
12343604053188,2.024328,-2.4418755,9.391231,0.037873615,0.021380268,-0.02611447,-7.2000003,17.1375,-34.10625,left
12343614053136,2.024328,-2.4418755,9.391231,0.037873615,0.021380268,-0.02611447,-6.3,17.41875,-35.193752,left
12343608453605,2.053042,-2.4945176,9.439087,0.037873615,0.021380268,-0.02611447,-6.3,17.41875,-35.193752,left
12343603490845,2.053042,-2.4945176,9.439087,0.02687805,0.029932374,-0.029779658,-6.3,17.41875,-35.193752,left
12343624053084,2.053042,-2.4945176,9.439087,0.02687805,0.029932374,-0.029779658,-6.3187504,17.118752,-34.875,left
12343634053032,2.053042,-2.4945176,9.439087,0.02687805,0.029932374,-0.029779658,-5.49375,16.6875,-35.60625,left
12343627527563,2.158326,-2.6285157,9.515657,0.04886918,0.04703659,-0.041996952,-5.49375,16.6875,-35.60625,left
12343622564803,2.158326,-2.6285157,9.515657,0.04886918,0.04703659,-0.041996952,-5.49375,16.6875,-35.60625,left
12343644052980,2.158326,-2.6285157,9.515657,0.04886918,0.04703659,-0.041996952,-4.2937503,16.368752,-33.54375,left
12343654052928,2.158326,-2.6285157,9.515657,0.04886918,0.04703659,-0.041996952,-6.01875,15.562501,-32.79375,left
12343646570584,2.1535404,-2.528017,9.5348,0.04886918,0.04703659,-0.041996952,-6.01875,15.562501,-32.79375,left
12343641607824,2.1535404,-2.528017,9.5348,0.09651663,0.076358095,-0.055435978,-6.01875,15.562501,-32.79375,left
12343664052876,2.1535404,-2.528017,9.5348,0.09651663,0.076358095,-0.055435978,-6.20625,16.837502,-34.3875,left
12343674052824,1.9812572,-2.461018,9.477372,0.09651663,0.076358095,-0.055435978,-4.9125004,17.8875,-36.09375,left
12343665643605,1.9812572,-2.461018,9.477372,0.09651663,0.076358095,-0.055435978,-4.9125004,17.8875,-36.09375,left
12343660680845,1.9812572,-2.461018,9.477372,0.12705988,0.10445788,-0.067653276,-4.9125004,17.8875,-36.09375,left
12343684052772,1.9812572,-2.461018,9.477372,0.12705988,0.10445788,-0.067653276,-7.1062503,18.13125,-34.18125,left
12343694052720,1.7611175,-2.3557339,9.338589,0.12705988,0.10445788,-0.067653276,-5.9437504,16.612501,-34.93125,left
12343684717563,1.7611175,-2.3557339,9.338589,0.12705988,0.10445788,-0.067653276,-5.9437504,16.612501,-34.93125,left
12343679754803,1.7611175,-2.3557339,9.338589,0.11606431,0.12156209,-0.073761925,-5.9437504,16.612501,-34.93125,left
12343704052668,1.7611175,-2.3557339,9.338589,0.11606431,0.12156209,-0.073761925,-7.425,16.556252,-34.65,left
12343703790584,1.6366907,-2.2983062,9.209376,0.091629714,0.12156209,-0.07620538,-7.425,16.556252,-34.65,left
12343698827824,1.6366907,-2.2983062,9.209376,0.091629714,0.12156209,-0.07620538,-7.425,16.556252,-34.65,left
12343714052615,1.6366907,-2.2983062,9.209376,0.091629714,0.12156209,-0.07620538,-4.6312504,14.775001,-34.0125,left
12343722864595,1.5888343,-2.3030918,9.137591,0.091629714,0.12156209,-0.07620538,-4.6312504,14.775001,-34.0125,left
12343717901834,1.5888343,-2.3030918,9.137591,0.05742129,0.109344795,-0.06887501,-5.3250003,16.518751,-34.125,left
12343724052563,1.5888343,-2.3030918,9.137591,0.05742129,0.109344795,-0.06887501,-5.3250003,16.518751,-34.125,left
12343734052511,1.5888343,-2.3030918,9.137591,0.05742129,0.109344795,-0.06887501,-6.1687503,17.2875,-35.025,left
12343754052407,1.5888343,-2.3030918,9.137591,0.05742129,0.109344795,-0.06887501,-8.137501,17.212502,-36.84375,left
12343744052459,1.5888343,-2.3030918,9.137591,0.05742129,0.109344795,-0.06887501,-6.1687503,17.2875,-35.025,left
12343741937563,1.5936198,-2.4945176,9.099306,0.013439025,0.08735366,-0.061544627,-8.137501,17.212502,-36.84375,left
12343736974803,1.5936198,-2.4945176,9.099306,0.013439025,0.08735366,-0.061544627,-8.137501,17.212502,-36.84375,left
12343764052355,1.5936198,-2.4945176,9.099306,0.013439025,0.08735366,-0.061544627,-6.3,15.825001,-33.881252,left
12343761011574,1.7180467,-2.6285157,9.041879,0.013439025,0.08735366,-0.061544627,-6.3,15.825001,-33.881252,left
12343756048813,1.7180467,-2.6285157,9.041879,-0.0012217296,0.064140804,-0.061544627,-6.3,15.825001,-33.881252,left
12343774052303,1.7180467,-2.6285157,9.041879,-0.0012217296,0.064140804,-0.061544627,-5.15625,17.00625,-35.30625,left
12343784052251,1.7180467,-2.6285157,9.041879,-0.0012217296,0.064140804,-0.061544627,-7.4625,15.937501,-32.850002,left
12343780084595,1.8520447,-2.5806592,9.142377,-0.0012217296,0.064140804,-0.061544627,-7.4625,15.937501,-32.850002,left
12343775121834,1.8520447,-2.5806592,9.142377,0.019547673,0.043371398,-0.060322896,-7.4625,15.937501,-32.850002,left
12343794052199,1.8520447,-2.5806592,9.142377,0.019547673,0.043371398,-0.060322896,-5.26875,15.69375,-34.18125,left
12343804052147,1.8520447,-2.5806592,9.142377,0.019547673,0.043371398,-0.060322896,-5.6062503,15.356251,-34.18125,left
12343794195845,1.8520447,-2.5806592,9.142377,0.02565632,0.022601997,-0.05421425,-5.6062503,15.356251,-34.18125,left
12343799158605,1.9525433,-2.4466612,9.247662,0.02565632,0.022601997,-0.05421425,-6.8250003,16.29375,-32.23125,left
12343814052095,1.9525433,-2.4466612,9.247662,0.02565632,0.022601997,-0.05421425,-6.8250003,16.29375,-32.23125,left
12343824052043,1.9525433,-2.4466612,9.247662,0.02565632,0.022601997,-0.05421425,-6.5062504,16.81875,-34.725002,left
12343818201574,2.009971,-2.341377,9.338589,-0.012217295,-0.0042760535,-0.037110034,-4.7250004,16.612501,-34.050003,left
12343813238813,2.009971,-2.341377,9.338589,-0.012217295,-0.0042760535,-0.037110034,-4.7250004,16.612501,-34.050003,left
12343834051990,2.009971,-2.341377,9.338589,-0.012217295,-0.0042760535,-0.037110034,-4.7250004,16.612501,-34.050003,left
12343844051938,2.009971,-2.341377,9.338589,-0.012217295,-0.0042760535,-0.037110034,-6.15,17.2875,-34.725002,left
12343832311834,2.053042,-2.475375,9.362516,-0.05497783,-0.033597562,-0.011453714,-5.175,16.6875,-34.256252,left
12343837274595,2.053042,-2.475375,9.362516,-0.05497783,-0.033597562,-0.011453714,-5.175,16.6875,-34.256252,left
12343854051886,2.053042,-2.475375,9.362516,-0.05497783,-0.033597562,-0.011453714,-5.175,16.6875,-34.256252,left
12343856348605,2.0482562,-2.6428726,9.329018,-0.06352994,-0.058032155,0.006872229,-6.43125,17.53125,-35.081253,left
12343851385845,2.0482562,-2.6428726,9.329018,-0.06352994,-0.058032155,0.006872229,-6.43125,17.53125,-35.081253,left
12343864051834,2.0482562,-2.6428726,9.329018,-0.05497783,-0.033597562,-0.011453714,-6.43125,17.53125,-35.081253,left
12343874051782,2.0482562,-2.6428726,9.329018,-0.06352994,-0.058032155,0.006872229,-5.925,16.59375,-34.631252,left
12343884051730,2.0673988,-2.5902305,9.31466,-0.06352994,-0.058032155,0.006872229,-5.08125,17.400002,-33.881252,left
12343875421574,2.0673988,-2.5902305,9.31466,-0.06352994,-0.058032155,0.006872229,-5.08125,17.400002,-33.881252,left
12343870458813,2.0673988,-2.5902305,9.31466,-0.041538805,-0.07147118,0.0129808765,-5.08125,17.400002,-33.881252,left
12343894051678,2.0673988,-2.5902305,9.31466,-0.041538805,-0.07147118,0.0129808765,-6.1125,17.868752,-35.79375,left
12343904051626,2.0673988,-2.5902305,9.31466,-0.041538805,-0.07147118,0.0129808765,-5.925,18.1875,-35.943752,left
12343894494595,2.0386848,-2.528017,9.362516,-0.037873615,-0.07391464,0.017867794,-5.925,18.1875,-35.943752,left
12343889531834,2.0386848,-2.528017,9.362516,-0.037873615,-0.07391464,0.017867794,-5.925,18.1875,-35.943752,left
12343914051574,2.0386848,-2.528017,9.362516,-0.037873615,-0.07391464,0.017867794,-5.8500004,17.325,-34.6875,left
12343913568605,2.0003998,-2.585445,9.352945,-0.047647454,-0.076358095,0.0129808765,-6.4500003,16.125,-35.5125,left
12343924051522,2.0003998,-2.585445,9.352945,-0.047647454,-0.076358095,0.0129808765,-6.4500003,16.125,-35.5125,left
12343908605845,2.0003998,-2.585445,9.352945,-0.047647454,-0.076358095,0.0129808765,-6.4500003,16.125,-35.5125,left
12343934051470,2.0003998,-2.585445,9.352945,-0.047647454,-0.076358095,0.0129808765,-6.525,16.518751,-34.40625,left
12343927678813,2.0003998,-2.585445,9.352945,-0.028099779,-0.06902772,0.009315688,-5.9625,17.737501,-35.175003,left
12343944051418,2.0003998,-2.585445,9.352945,-0.028099779,-0.06902772,0.009315688,-5.9625,17.737501,-35.175003,left
12343932641574,1.9669002,-2.5615165,9.338589,-0.028099779,-0.06902772,0.009315688,-5.9625,17.737501,-35.175003,left
12343954051365,1.9669002,-2.5615165,9.338589,-0.028099779,-0.06902772,0.009315688,-6.15,17.587502,-35.775,left
12343951715584,1.9621146,-2.4705894,9.357731,-0.028099779,-0.06902772,0.009315688,-6.15,17.587502,-35.775,left
12343946752824,1.9621146,-2.4705894,9.357731,0.0024434591,-0.056810424,0.008093959,-6.15,17.587502,-35.775,left
12343964051313,1.9621146,-2.4705894,9.357731,0.0024434591,-0.056810424,0.008093959,-6.5062504,16.81875,-35.006252,left
12343974051261,1.9621146,-2.4705894,9.357731,0.0024434591,-0.056810424,0.008093959,-5.6625004,17.79375,-35.5875,left
12343965795845,1.9094725,-2.461018,9.410374,-0.0061086477,-0.049480047,0.008093959,-5.6625004,17.79375,-35.5875,left
12343970758605,1.9094725,-2.461018,9.410374,-0.0061086477,-0.049480047,0.008093959,-5.6625004,17.79375,-32.11875,left
12343984051209,1.9094725,-2.461018,9.410374,-0.0061086477,-0.049480047,0.008093959,-7.6312504,15.618751,-32.11875,left
12343994051157,1.9094725,-2.461018,9.410374,-0.0061086477,-0.049480047,0.008093959,-5.2125,17.831251,-35.100002,left
12343984868813,1.9142581,-2.5136602,9.372088,-0.028099779,-0.049480047,0.0044287695,-7.6312504,16.10625,-34.78125,left
12344004051105,1.9142581,-2.5136602,9.372088,-0.028099779,-0.049480047,0.0044287695,-7.6312504,16.10625,-34.78125,left
12343989831574,1.9142581,-2.5136602,9.372088,-0.028099779,-0.049480047,0.0044287695,-7.6312504,16.10625,-34.78125,left
12344014051053,1.9142581,-2.5136602,9.372088,-0.028099779,-0.049480047,0.0044287695,-6.9,17.493752,-35.850002,left
12344008905584,1.9094725,-2.5375884,9.343374,-0.018325943,-0.04092794,0.009315688,-6.9,17.493752,-35.850002,left
12344003942824,1.9094725,-2.5375884,9.343374,-0.018325943,-0.04092794,0.009315688,-6.9,17.493752,-35.850002,left
12344024051001,1.9094725,-2.5375884,9.343374,-0.018325943,-0.04092794,0.009315688,-4.2375,18.525002,-35.362503,left
12344023015845,1.9094725,-2.5375884,9.343374,-0.0012217296,-0.031154104,0.014202606,-6.8812504,17.475,-34.818752,left
12344034050949,1.9094725,-2.5375884,9.343374,-0.0012217296,-0.031154104,0.014202606,-6.8812504,17.475,-34.818752,left
12344027978605,1.9094725,-2.528017,9.376874,-0.0012217296,-0.031154104,0.014202606,-7.9125004,16.518751,-35.71875,left
12344044050897,1.9094725,-2.528017,9.376874,-0.0012217296,-0.031154104,0.014202606,-7.9125004,16.518751,-35.71875,left
12344054050845,1.9094725,-2.528017,9.376874,-0.0012217296,-0.031154104,0.014202606,-6.9750004,16.44375,-33.43125,left
12344042089803,1.9094725,-2.4945176,9.376874,0.0061086477,-0.023823727,0.019089524,-6.9750004,16.44375,-33.43125,left
12344047052563,1.9094725,-2.4945176,9.376874,0.0061086477,-0.023823727,0.019089524,-6.9750004,16.44375,-33.43125,left
12344064050793,1.9094725,-2.4945176,9.376874,0.0061086477,-0.023823727,0.019089524,-5.3250003,16.837502,-35.456253,left
12344074050740,1.9190438,-2.43709,9.3816595,0.0061086477,-0.023823727,0.019089524,-5.1937504,17.8125,-34.237503,left
12344066125584,1.9190438,-2.43709,9.3816595,0.0061086477,-0.023823727,0.019089524,-5.1937504,17.8125,-34.237503,left
12344061162824,1.9190438,-2.43709,9.3816595,0.0048869182,-0.020158539,0.026419902,-5.1937504,17.8125,-34.237503,left
12344084050688,1.9190438,-2.43709,9.3816595,0.0048869182,-0.020158539,0.026419902,-7.2937503,16.425001,-35.0625,left
12344094050636,1.9334008,-2.3988047,9.372088,0.0048869182,-0.020158539,0.026419902,-6.01875,17.15625,-34.256252,left
12344085199595,1.9334008,-2.3988047,9.372088,0.0048869182,-0.020158539,0.026419902,-6.01875,17.15625,-34.256252,left
12344080236834,1.9334008,-2.3988047,9.372088,-0.0012217296,-0.01527162,0.026419902,-6.01875,17.15625,-34.256252,left
12344104050584,1.9334008,-2.3988047,9.372088,-0.0012217296,-0.01527162,0.026419902,-5.55,18.7875,-35.23125,left
12344104272563,1.9525433,-2.3988047,9.362516,-0.0012217296,-0.01527162,0.026419902,-4.2375,16.931252,-33.600002,left
12344114050532,1.9525433,-2.3988047,9.362516,-0.0012217296,-0.01527162,0.026419902,-4.2375,16.931252,-33.600002,left
12344099309803,1.9525433,-2.3988047,9.362516,-0.0048869182,-0.009162972,0.026419902,-6.39375,16.3875,-34.237503,left
12344124050480,1.9525433,-2.3988047,9.362516,-0.0048869182,-0.009162972,0.026419902,-6.39375,16.3875,-34.237503,left
12344118383813,1.9812572,-2.4131618,9.367303,-0.0036651888,-0.0042760535,0.022754714,-6.39375,16.3875,-34.237503,left
12344123346574,1.9812572,-2.4131618,9.367303,-0.0036651888,-0.0042760535,0.022754714,-6.39375,16.3875,-34.237503,left
12344134050428,1.9812572,-2.4131618,9.367303,-0.0036651888,-0.0042760535,0.022754714,-8.025001,16.612501,-34.875,left
12344144050376,1.9812572,-2.4131618,9.367303,-0.0036651888,-0.0042760535,0.022754714,-6.8437505,16.650002,-35.90625,left
12344137426834,1.9812572,-2.4131618,9.367303,-0.0024434591,-0.005497783,0.020311253,-6.8437505,16.650002,-35.90625,left
12344142389595,2.0003998,-2.4418755,9.372088,-0.0024434591,-0.005497783,0.020311253,-6.8437505,16.650002,-35.90625,left
12344154050324,2.0003998,-2.4418755,9.372088,-0.0024434591,-0.005497783,0.020311253,-6.39375,17.79375,-34.068752,left
12344164050272,2.0003998,-2.4418755,9.372088,-0.0024434591,-0.005497783,0.020311253,-6.39375,16.706251,-35.568752,left
12344161462563,1.995614,-2.4801607,9.367303,-0.0024434591,-0.005497783,0.020311253,-6.39375,16.706251,-35.568752,left
12344156499803,1.995614,-2.4801607,9.367303,-0.0073303776,-0.0067195124,0.016646065,-6.39375,16.706251,-35.568752,left
12344174050220,1.995614,-2.4801607,9.367303,-0.0073303776,-0.0067195124,0.016646065,-6.1125,17.550001,-34.0125,left
12344184050168,1.995614,-2.4801607,9.367303,-0.0073303776,-0.0067195124,0.016646065,-6.3562503,17.15625,-36.1875,left
12344175573813,2.009971,-2.5519454,9.295518,-0.015882485,-0.010384701,0.014202606,-4.9875,17.325,-36.05625,left
12344194050115,2.009971,-2.5519454,9.295518,-0.015882485,-0.010384701,0.014202606,-4.9875,17.325,-36.05625,left
12344180536574,2.009971,-2.5519454,9.295518,-0.015882485,-0.010384701,0.014202606,-4.9875,17.325,-36.05625,left
12344204050063,2.009971,-2.5519454,9.295518,-0.015882485,-0.010384701,0.014202606,-5.3250003,16.518751,-33.675003,left
12344199609595,2.0051854,-2.5710878,9.23809,-0.012217295,-0.005497783,0.014202606,-5.3250003,16.518751,-33.675003,left
12344194646834,2.0051854,-2.5710878,9.23809,-0.012217295,-0.005497783,0.014202606,-5.3250003,16.518751,-33.675003,left
12344214050011,2.0051854,-2.5710878,9.23809,-0.012217295,-0.005497783,0.014202606,-5.775,16.78125,-35.0625,left
12344224049959,2.0051854,-2.5710878,9.23809,-0.012217295,-0.005497783,0.014202606,-6.24375,16.556252,-34.66875,left
12344218683605,2.0147567,-2.5663023,9.233304,-0.012217295,-0.0006108648,0.011759147,-6.24375,16.556252,-34.66875,left
12344213720845,2.0147567,-2.5663023,9.233304,-0.012217295,-0.0006108648,0.011759147,-6.24375,16.556252,-34.66875,left
12344234049907,2.0147567,-2.5663023,9.233304,-0.012217295,-0.0006108648,0.011759147,-5.6625004,17.456251,-33.525,left
12344237756574,2.0003998,-2.6285157,9.271589,-0.012217295,0.0006108648,0.006872229,-5.53125,16.3875,-35.5875,left
12344232793813,2.0003998,-2.6285157,9.271589,-0.012217295,0.0006108648,0.006872229,-5.53125,16.3875,-35.5875,left
12344244049855,2.0003998,-2.6285157,9.271589,-0.012217295,0.0006108648,0.006872229,-5.53125,16.3875,-35.5875,left
12344254049803,2.0003998,-2.6285157,9.271589,-0.012217295,0.0006108648,0.006872229,-5.4750004,16.650002,-34.29375,left
12344264049751,2.0147567,-2.5902305,9.28116,-0.0036651888,-0.0006108648,0.0056504994,-7.0312505,17.2875,-33.956253,left
12344251867824,2.0147567,-2.5902305,9.28116,-0.0036651888,-0.0006108648,0.0056504994,-7.0312505,17.2875,-33.956253,left
12344256830584,2.0147567,-2.5902305,9.28116,-0.0036651888,-0.0006108648,0.0056504994,-7.0312505,17.2875,-33.956253,left
12344274049699,2.0147567,-2.5902305,9.28116,-0.0036651888,-0.0006108648,0.0056504994,-7.0125003,15.056251,-35.475002,left
12344284049647,2.0147567,-2.5902305,9.28116,-0.0036651888,-0.0006108648,0.0056504994,-6.9375005,16.725,-33.45,left
12344275903605,2.0195422,-2.5040889,9.290732,0.0012217296,-0.0067195124,0.006872229,-6.9375005,16.725,-33.45,left
12344270940845,2.0195422,-2.5040889,9.290732,0.0012217296,-0.0067195124,0.006872229,-6.9375005,16.725,-33.45,left
12344294049595,2.0195422,-2.5040889,9.290732,0.0012217296,-0.0067195124,0.006872229,-6.3,15.825001,-33.28125,left
12344304049543,2.0195422,-2.5040889,9.290732,0.0012217296,-0.0067195124,0.006872229,-5.4750004,16.66875,-34.875,left
12344290014803,2.0291135,-2.4993033,9.257233,-0.012217295,-0.0140498895,0.010537418,-5.4750004,16.66875,-34.875,left
12344294977563,2.0291135,-2.4993033,9.257233,-0.012217295,-0.0140498895,0.010537418,-5.4750004,16.66875,-34.875,left
12344314049490,2.0291135,-2.4993033,9.257233,-0.012217295,-0.0140498895,0.010537418,-6.8812504,17.475,-35.11875,left
12344314020584,2.0003998,-2.5902305,9.285947,-0.02443459,-0.022601997,0.015424335,-6.8812504,17.475,-35.11875,left
12344309057824,2.0003998,-2.5902305,9.285947,-0.02443459,-0.022601997,0.015424335,-6.4500003,17.23125,-34.4625,left
12344324049438,2.0003998,-2.5902305,9.285947,-0.02443459,-0.022601997,0.015424335,-6.4500003,17.23125,-34.4625,left
12344334049386,2.0003998,-2.5902305,9.285947,-0.02443459,-0.022601997,0.015424335,-7.4812503,15.975,-34.3125,left
12344333093605,2.0051854,-2.5902305,9.28116,-0.019547673,-0.029932374,0.016646065,-8.08125,16.03125,-34.537502,left
12344354049282,2.0051854,-2.5902305,9.28116,-0.019547673,-0.029932374,0.016646065,-8.08125,16.03125,-34.537502,left
12344328130845,2.0051854,-2.5902305,9.28116,-0.019547673,-0.029932374,0.016646065,-8.08125,16.03125,-34.537502,left
12344344049334,2.0051854,-2.5902305,9.28116,-0.019547673,-0.029932374,0.016646065,-8.08125,16.03125,-34.537502,left
12344347204803,2.0051854,-2.5663023,9.309875,-0.008552107,-0.03604102,0.017867794,-7.89375,16.5,-35.287502,left
12344364049230,2.0051854,-2.5663023,9.309875,-0.008552107,-0.03604102,0.017867794,-7.89375,16.5,-35.287502,left
12344352167563,2.0051854,-2.5663023,9.309875,-0.008552107,-0.03604102,0.017867794,-7.89375,16.5,-35.287502,left
12344374049178,2.0051854,-2.5663023,9.309875,-0.008552107,-0.03604102,0.017867794,-6.76875,18.46875,-34.612503,left
12344371240584,2.0003998,-2.489732,9.333803,-0.008552107,-0.03604102,0.017867794,-6.76875,18.46875,-34.612503,left
12344366277824,2.0003998,-2.489732,9.333803,-0.0061086477,-0.03970621,0.015424335,-5.6625004,17.1375,-31.462502,left
12344384049126,2.0003998,-2.489732,9.333803,-0.0061086477,-0.03970621,0.015424335,-5.6625004,17.1375,-31.462502,left
12344394049074,2.0003998,-2.489732,9.333803,-0.0061086477,-0.03970621,0.015424335,-4.1062503,13.500001,-30.487501,left
12344390314595,1.9621146,-2.4801607,9.410374,0.0073303776,-0.03848448,0.017867794,-4.1062503,13.500001,-30.487501,left
12344385351834,1.9621146,-2.4801607,9.410374,0.0073303776,-0.03848448,0.017867794,-4.1062503,13.500001,-30.487501,left
12344404049022,1.9621146,-2.4801607,9.410374,0.0073303776,-0.03848448,0.017867794,-5.8125,16.1625,-33.412502,left
12344414048970,1.9621146,-2.4801607,9.410374,0.0073303776,-0.03848448,0.017867794,-6.0375004,15.262501,-32.775,left
12344404424803,1.8855443,-2.4705894,9.45823,0.017104214,-0.03848448,0.017867794,-6.0375004,15.262501,-32.775,left
12344409387563,1.8855443,-2.4705894,9.45823,0.017104214,-0.03848448,0.017867794,-6.0375004,15.262501,-32.775,left
12344424048918,1.8855443,-2.4705894,9.45823,0.017104214,-0.03848448,0.017867794,-5.83125,17.2875,-33.375,left
12344434048865,1.8855443,-2.4705894,9.45823,0.017104214,-0.03848448,0.017867794,-5.8875003,15.450001,-33.6375,left
12344444048813,1.8041883,-2.461018,9.491729,0.023212861,-0.03970621,0.020311253,-6.5625005,16.237501,-34.36875,left
12344423498813,1.8041883,-2.461018,9.491729,0.023212861,-0.03970621,0.020311253,-6.5625005,16.237501,-34.36875,left
12344428461574,1.8041883,-2.461018,9.491729,0.023212861,-0.03970621,0.020311253,-6.5625005,16.237501,-34.36875,left
12344454048761,1.8041883,-2.461018,9.491729,0.023212861,-0.03970621,0.020311253,-6.3750005,16.368752,-33.506252,left
12344447534595,1.7946169,-2.379662,9.448658,0.023212861,-0.04214967,0.019089524,-6.3750005,16.368752,-33.506252,left
12344442571834,1.7946169,-2.379662,9.448658,0.023212861,-0.04214967,0.019089524,-6.3750005,16.368752,-33.506252,left
12344464048709,1.7946169,-2.379662,9.448658,0.023212861,-0.04214967,0.019089524,-5.175,15.281251,-34.275,left
12344474048657,1.7946169,-2.379662,9.448658,0.023212861,-0.04214967,0.019089524,-5.4,15.7875,-33.3375,left
12344461645845,1.7706888,-2.3700907,9.410374,0.0048869182,-0.03604102,0.019089524,-5.4,15.7875,-33.3375,left
12344466608605,1.7706888,-2.3700907,9.410374,0.0048869182,-0.03604102,0.019089524,-5.4,15.7875,-33.3375,left
12344484048605,1.7706888,-2.3700907,9.410374,0.0048869182,-0.03604102,0.019089524,-6.15,15.675,-32.68125,left
12344494048553,1.7706888,-2.3700907,9.410374,0.0048869182,-0.03604102,0.019089524,-4.40625,16.78125,-33.75,left
12344485650584,1.7371893,-2.4275186,9.405587,-0.0048869182,-0.026267186,0.014202606,-4.40625,16.78125,-33.75,left
12344480687824,1.7371893,-2.4275186,9.405587,-0.0048869182,-0.026267186,0.014202606,-4.40625,16.78125,-33.75,left
12344504048501,1.7371893,-2.4275186,9.405587,-0.0048869182,-0.026267186,0.014202606,-5.775,16.78125,-35.5125,left
12344514048449,1.7419748,-2.475375,9.443872,-0.0048869182,-0.026267186,0.014202606,-7.1625004,17.41875,-33.84375,left
12344504724595,1.7419748,-2.475375,9.443872,-0.0048869182,-0.026267186,0.014202606,-7.1625004,17.41875,-33.84375,left
12344499761834,1.7419748,-2.475375,9.443872,0.013439025,-0.017715078,0.014202606,-7.1625004,17.41875,-33.84375,left
12344524048397,1.7419748,-2.475375,9.443872,0.013439025,-0.017715078,0.014202606,-7.275,16.725,-35.8125,left
12344518834803,1.7036897,-2.489732,9.429516,0.02932151,-0.011606431,0.0129808765,-7.275,16.725,-35.8125,left
12344534048345,1.7036897,-2.489732,9.429516,0.02932151,-0.011606431,0.0129808765,-6.0,14.45625,-33.99375,left
12344523797563,1.7036897,-2.489732,9.429516,0.02932151,-0.011606431,0.0129808765,-7.275,16.725,-35.8125,left
12344544048293,1.7036897,-2.489732,9.429516,0.02932151,-0.011606431,0.0129808765,-7.5000005,17.41875,-35.90625,left
12344537908813,1.7036897,-2.489732,9.429516,0.02932151,-0.0067195124,0.015424335,-6.7875004,17.0625,-34.912502,left
12344542871574,1.6893328,-2.4514468,9.367303,0.02932151,-0.0067195124,0.015424335,-6.7875004,17.0625,-34.912502,left
12344554048240,1.7036897,-2.489732,9.429516,0.02932151,-0.0067195124,0.015424335,-6.7875004,17.0625,-34.912502,left
12344564048188,1.6893328,-2.4514468,9.367303,0.02932151,-0.0067195124,0.015424335,-7.1250005,16.59375,-34.631252,left
12344556981834,1.7706888,-2.4514468,9.233304,0.013439025,-0.0042760535,0.010537418,-7.2000003,16.03125,-35.5875,left
12344574048136,1.7706888,-2.4514468,9.233304,0.013439025,-0.0042760535,0.010537418,-7.2000003,16.03125,-35.5875,left
12344561944595,1.7706888,-2.4514468,9.233304,0.013439025,-0.0042760535,0.010537418,-7.1250005,16.59375,-34.631252,left
12344584048084,1.7706888,-2.4514468,9.233304,0.013439025,-0.0042760535,0.010537418,-4.33125,17.5125,-34.8375,left
12344576055845,1.8807586,-2.4945176,9.190233,0.0036651888,0.0030543238,0.010537418,-5.7562504,16.7625,-34.2,left
12344594048032,1.8807586,-2.4945176,9.190233,0.0036651888,0.0030543238,0.010537418,-5.7562504,16.7625,-34.2,left
12344581018605,1.8807586,-2.4945176,9.190233,0.0036651888,0.0030543238,0.010537418,-5.7562504,16.7625,-34.2,left
12344604047980,1.8807586,-2.4945176,9.190233,0.0036651888,0.0030543238,0.010537418,-6.7875004,17.0625,-35.2125,left
12344595128813,1.9477576,-2.6428726,9.271589,0.012217295,0.009162972,0.011759147,-6.4687505,17.25,-35.04375,left
12344614047928,1.9477576,-2.6428726,9.271589,0.012217295,0.009162972,0.011759147,-6.4687505,17.25,-35.04375,left
12344600091574,1.9477576,-2.6428726,9.271589,0.012217295,0.009162972,0.011759147,-6.4687505,17.25,-35.04375,left
12344624047876,1.9477576,-2.6428726,9.271589,0.012217295,0.009162972,0.011759147,-6.20625,16.85625,-34.6875,left
12344619165584,1.9908284,-2.6715865,9.262018,0.035430156,0.010384701,0.014202606,-6.20625,16.85625,-34.6875,left
12344614202824,1.9908284,-2.6715865,9.262018,0.035430156,0.010384701,0.014202606,-6.20625,16.85625,-34.6875,left
12344634047824,1.9908284,-2.6715865,9.262018,0.035430156,0.010384701,0.014202606,-7.05,17.306252,-34.96875,left
12344644047772,1.9908284,-2.6715865,9.262018,0.035430156,0.010384701,0.014202606,-5.1000004,17.4375,-35.34375,left
12344638208605,2.0003998,-2.609373,9.247662,0.039095346,-0.0018325944,0.026419902,-4.9500003,18.712502,-35.025,left
12344633245845,2.0003998,-2.609373,9.247662,0.039095346,-0.0018325944,0.026419902,-4.9500003,18.712502,-35.025,left
12344654047720,2.0003998,-2.609373,9.247662,0.039095346,-0.0018325944,0.026419902,-4.9500003,18.712502,-35.025,left
12344664047668,2.0578275,-2.6285157,9.113664,0.039095346,-0.0018325944,0.026419902,-8.418751,17.1375,-35.4,left
12344657281574,2.0578275,-2.6285157,9.113664,0.039095346,-0.0018325944,0.026419902,-8.418751,17.1375,-35.4,left
12344652318813,2.0578275,-2.6285157,9.113664,0.0048869182,-0.028710645,0.03497201,-8.418751,17.1375,-35.4,left
12344674047615,2.0578275,-2.6285157,9.113664,0.0048869182,-0.028710645,0.03497201,-5.71875,17.19375,-34.818752,left
12344684047563,2.0578275,-2.6285157,9.113664,0.0048869182,-0.028710645,0.03497201,-6.43125,16.10625,-34.78125,left
12344676355584,2.0673988,-2.638087,8.955737,0.0048869182,-0.028710645,0.03497201,-6.43125,16.10625,-34.78125,left
12344671392824,2.0673988,-2.638087,8.955737,-0.023212861,-0.060475614,0.05574141,-6.43125,16.10625,-34.78125,left
12344694047511,2.0673988,-2.638087,8.955737,-0.023212861,-0.060475614,0.05574141,-7.5937505,15.281251,-35.568752,left
12344704047459,2.0673988,-2.638087,8.955737,-0.023212861,-0.060475614,0.05574141,-6.43125,16.425001,-35.831253,left
12344695428605,2.062613,-2.5519454,8.946166,-0.040317077,-0.08857539,0.08628465,-6.43125,16.425001,-35.831253,left
12344690465845,2.062613,-2.5519454,8.946166,-0.040317077,-0.08857539,0.08628465,-6.43125,16.425001,-35.831253,left
12344714047407,2.062613,-2.5519454,8.946166,-0.040317077,-0.08857539,0.08628465,-7.2562504,18.28125,-35.381252,left
12344714502563,2.0482562,-2.786442,8.989237,-0.040317077,-0.08857539,0.08628465,-6.8437505,16.3125,-33.54375,left
12344724047355,2.0482562,-2.786442,8.989237,-0.040317077,-0.08857539,0.08628465,-6.8437505,16.3125,-33.54375,left
12344709539803,2.0482562,-2.786442,8.989237,-0.08796453,-0.11911863,0.12415826,-6.8437505,16.3125,-33.54375,left
12344734047303,2.0482562,-2.786442,8.989237,-0.08796453,-0.11911863,0.12415826,-4.36875,17.0625,-33.768753,left
12344733575584,2.024328,-3.2219357,8.879167,-0.13561198,-0.14599667,0.1424842,-4.36875,17.0625,-33.768753,left
12344728612824,2.024328,-3.2219357,8.879167,-0.13561198,-0.14599667,0.1424842,-4.36875,17.0625,-33.768753,left
12344744047251,2.024328,-3.2219357,8.879167,-0.13561198,-0.14599667,0.1424842,-6.9,18.6,-34.5,left
12344754047199,2.024328,-3.2219357,8.879167,-0.13561198,-0.14599667,0.1424842,-6.7125,17.625,-34.3875,left
12344747686834,2.024328,-3.2219357,8.879167,-0.13805544,-0.14477496,0.13026692,-7.425,16.5375,-33.91875,left
12344764047147,2.024328,-3.2219357,8.879167,-0.13805544,-0.14477496,0.13026692,-7.425,16.5375,-33.91875,left
12344752649595,2.115255,-3.3367913,8.783454,-0.13805544,-0.14477496,0.13026692,-7.425,16.5375,-33.91875,left
12344774047095,2.115255,-3.3367913,8.783454,-0.13805544,-0.14477496,0.13026692,-6.3,18.50625,-33.84375,left
12344771722563,2.1918256,-3.4133615,8.5346,-0.13805544,-0.14477496,0.13026692,-6.3,18.50625,-33.84375,left
12344766759803,2.1918256,-3.4133615,8.5346,-0.16493349,-0.12889247,0.09850194,-6.3,18.50625,-33.84375,left
12344794046990,2.1918256,-3.4133615,8.5346,-0.16493349,-0.12889247,0.09850194,-7.3125005,17.53125,-34.0125,left
12344784047043,2.1918256,-3.4133615,8.5346,-0.16493349,-0.12889247,0.09850194,-7.3125005,17.53125,-34.0125,left
12344790796574,2.321038,-3.51386,8.42453,-0.16371176,-0.0971275,0.04963276,-7.3125005,17.53125,-34.0125,left
12344785833813,2.321038,-3.51386,8.42453,-0.16371176,-0.0971275,0.04963276,-7.3125005,17.53125,-34.0125,left
12344804046938,2.321038,-3.51386,8.42453,-0.16371176,-0.0971275,0.04963276,-7.8562503,18.056252,-34.706253,left
12344814046886,2.321038,-3.51386,8.42453,-0.16371176,-0.0971275,0.04963276,-7.5937505,19.21875,-34.65,left
12344804876834,2.3545375,-3.5090744,8.64467,-0.10995566,-0.043371398,-0.0004581486,-7.5937505,19.21875,-34.65,left
12344809839595,2.3545375,-3.5090744,8.64467,-0.10995566,-0.043371398,-0.0004581486,-7.5937505,19.21875,-34.65,left
12344824046834,2.3545375,-3.5090744,8.64467,-0.10995566,-0.043371398,-0.0004581486,-7.4625,17.681252,-34.631252,left
12344834046782,2.3545375,-3.5090744,8.64467,-0.10995566,-0.043371398,-0.0004581486,-6.4125004,17.493752,-33.46875,left
12344823949803,2.4311078,-3.1597223,9.022736,-0.043982264,0.0030543238,-0.05299252,-6.4125004,17.493752,-33.46875,left
12344828912563,2.4311078,-3.1597223,9.022736,-0.043982264,0.0030543238,-0.05299252,-6.4125004,17.493752,-33.46875,left
12344844046730,2.4311078,-3.1597223,9.022736,-0.043982264,0.0030543238,-0.05299252,-7.6687503,18.487501,-34.575,left
12344854046678,2.4311078,-3.1597223,9.022736,-0.043982264,0.0030543238,-0.05299252,-6.8437505,17.75625,-34.55625,left
12344843023813,2.4646072,-2.7003005,9.410374,-0.06108648,0.028710645,-0.08720095,-6.8437505,17.75625,-34.55625,left
12344847986574,2.4646072,-2.7003005,9.410374,-0.06108648,0.028710645,-0.08720095,-6.8437505,17.75625,-34.55625,left
12344864046626,2.4646072,-2.7003005,9.410374,-0.06108648,0.028710645,-0.08720095,-5.83125,17.625,-35.456253,left
12344874046574,2.4646072,-2.7003005,9.410374,-0.06108648,0.028710645,-0.08720095,-6.24375,17.6625,-33.318752,left
12344867059595,2.4837499,-2.4179473,9.501301,-0.06108648,0.028710645,-0.08720095,-6.24375,17.6625,-33.318752,left
12344862096834,2.4837499,-2.4179473,9.501301,-0.16493349,0.027488915,-0.11041381,-6.24375,17.6625,-33.318752,left
12344884046522,2.4837499,-2.4179473,9.501301,-0.16493349,0.027488915,-0.11041381,-6.6000004,18.300001,-32.7,left
12344894046470,2.4837499,-2.4179473,9.501301,-0.16493349,0.027488915,-0.11041381,-7.2375,18.2625,-34.068752,left
12344881170845,2.4263222,-2.408376,9.362516,-0.28832817,0.023823727,-0.105526894,-7.2375,18.2625,-34.068752,left
12344886133605,2.4263222,-2.408376,9.362516,-0.28832817,0.023823727,-0.105526894,-7.2375,18.2625,-34.068752,left
12344904046418,2.4263222,-2.408376,9.362516,-0.28832817,0.023823727,-0.105526894,-7.2562504,17.962502,-33.46875,left
12344914046365,2.4263222,-2.408376,9.362516,-0.28832817,0.023823727,-0.105526894,-8.418751,18.243752,-33.768753,left
12344905206574,2.388037,-2.6189444,9.142377,-0.37384924,0.029932374,-0.08231403,-8.418751,18.243752,-33.768753,left
12344900243813,2.388037,-2.6189444,9.142377,-0.37384924,0.029932374,-0.08231403,-8.418751,18.243752,-33.768753,left
12344924046313,2.388037,-2.6189444,9.142377,-0.37384924,0.029932374,-0.08231403,-6.05625,17.8125,-32.4375,left
12344934046261,2.3258235,-2.8342984,9.022736,-0.37384924,0.029932374,-0.08231403,-6.9187503,17.962502,-31.968752,left
12344924280584,2.3258235,-2.8342984,9.022736,-0.37384924,0.029932374,-0.08231403,-6.9187503,17.962502,-31.968752,left
12344919317824,2.3258235,-2.8342984,9.022736,-0.3921752,0.03970621,-0.0481056,-6.9187503,17.962502,-31.968752,left
12344944046209,2.3258235,-2.8342984,9.022736,-0.3921752,0.03970621,-0.0481056,-7.1062503,19.25625,-33.581253,left
12344943353605,2.2588246,-2.9635108,8.773883,-0.3921752,0.03970621,-0.0481056,-7.1062503,19.25625,-33.581253,left
12344954046157,2.2588246,-2.9635108,8.773883,-0.3921752,0.05070178,-0.02611447,-6.9750004,19.125,-33.693752,left
12344938390845,2.2588246,-2.9635108,8.773883,-0.3921752,0.05070178,-0.02611447,-6.9750004,19.125,-33.693752,left
12344964046105,2.2588246,-2.9635108,8.773883,-0.3921752,0.05070178,-0.02611447,-6.76875,16.556252,-31.518751,left
12344957464803,1.698904,-3.0640094,9.037093,-0.34697118,0.077579826,-0.004123337,-6.76875,16.556252,-31.518751,left
12344962427563,1.698904,-3.0640094,9.037093,-0.34697118,0.077579826,-0.004123337,-6.76875,16.556252,-31.518751,left
12344974046053,1.698904,-3.0640094,9.037093,-0.34697118,0.077579826,-0.004123337,-6.9750004,19.10625,-32.9625,left
12344984046001,1.698904,-3.0640094,9.037093,-0.34697118,0.077579826,-0.004123337,-8.325001,19.25625,-34.143753,left
12344994045949,1.9286151,-3.839284,9.443872,-0.1404989,0.08613193,-0.061544627,-6.6375003,18.018751,-32.9625,left
12344976507824,1.9286151,-3.839284,9.443872,-0.1404989,0.08613193,-0.061544627,-6.6375003,18.018751,-32.9625,left
12344981470584,1.9286151,-3.839284,9.443872,-0.1404989,0.08613193,-0.061544627,-6.6375003,18.018751,-32.9625,left
12345004045897,1.9286151,-3.839284,9.443872,-0.1404989,0.08613193,-0.061544627,-6.4875,19.650002,-34.85625,left
12344995580845,2.0386848,-2.0255244,9.855438,0.41905323,0.08613193,0.031306818,-6.4875,19.650002,-34.85625,left
12345000543605,2.0386848,-2.0255244,9.855438,0.41905323,0.08613193,0.031306818,-6.4875,19.650002,-34.85625,left
12345014045845,2.0386848,-2.0255244,9.855438,0.41905323,0.08613193,0.031306818,-6.3187504,18.525002,-34.575,left
12345024045793,2.0386848,-2.0255244,9.855438,0.41905323,0.08613193,0.031306818,-5.15625,19.368752,-33.80625,left
12345019617563,2.7278178,-0.77647096,10.367502,0.41905323,0.08613193,0.031306818,-5.15625,19.368752,-33.80625,left
12345014654803,2.7278178,-0.77647096,10.367502,0.39584038,0.021380268,0.12415826,-7.9125004,17.306252,-33.1875,left
12345034045740,2.7278178,-0.77647096,10.367502,0.39584038,0.021380268,0.12415826,-7.9125004,17.306252,-33.1875,left
12345044045688,2.7278178,-0.77647096,10.367502,0.39584038,0.021380268,0.12415826,-6.5625005,20.493752,-35.081253,left
12345038690584,2.4263222,-1.6570296,10.893924,-0.1197295,-0.07513637,0.1375973,-6.5625005,20.493752,-35.081253,left
12345033727824,2.4263222,-1.6570296,10.893924,-0.1197295,-0.07513637,0.1375973,-6.5625005,20.493752,-35.081253,left
12345054045636,2.4263222,-1.6570296,10.893924,-0.1197295,-0.07513637,0.1375973,-7.89375,19.181252,-34.96875,left
12345064045584,2.4263222,-1.6570296,10.893924,-0.1197295,-0.07513637,0.1375973,-6.6937504,18.712502,-32.30625,left
12345057764595,2.115255,-2.4466612,9.94158,-0.5204568,-0.18264857,0.21578798,-6.6937504,18.712502,-32.30625,left
12345052801834,2.115255,-2.4466612,9.94158,-0.5204568,-0.18264857,0.21578798,-6.6937504,18.712502,-32.30625,left
12345074045532,2.115255,-2.4466612,9.94158,-0.5204568,-0.18264857,0.21578798,-7.6312504,20.04375,-34.443752,left
12345084045480,2.115255,-2.4466612,9.94158,-0.5204568,-0.18264857,0.21578798,-5.6625004,20.456251,-35.11875,left
12345071874803,2.115255,-2.4466612,9.94158,-0.51801336,-0.25595233,0.30130905,-5.6625004,20.456251,-35.11875,left
12345094045428,2.2301106,-3.1692936,9.032308,-0.51801336,-0.25595233,0.30130905,-6.7125,18.712502,-32.60625,left
12345076837563,2.2301106,-3.1692936,9.032308,-0.51801336,-0.25595233,0.30130905,-6.7125,18.712502,-32.60625,left
12345104045376,2.2301106,-3.1692936,9.032308,-0.51801336,-0.25595233,0.30130905,-7.74375,19.050001,-34.350002,left
12345090947824,2.1104696,-3.4660037,8.620742,-0.34819293,-0.2669479,0.32696536,-7.74375,19.050001,-34.350002,left
12345095910584,2.1104696,-3.4660037,8.620742,-0.34819293,-0.2669479,0.32696536,-7.74375,19.050001,-34.350002,left
12345114045324,2.1104696,-3.4660037,8.620742,-0.34819293,-0.2669479,0.32696536,-4.55625,20.550001,-32.4,left
12345124045272,2.1104696,-3.4660037,8.620742,-0.34819293,-0.2669479,0.32696536,-5.7375,21.0,-34.3125,left
12345114984595,2.1248264,-3.5760734,8.467601,-0.34819293,-0.2669479,0.32696536,-5.7375,21.0,-34.3125,left
12345110021834,2.1248264,-3.5760734,8.467601,-0.25045455,-0.25961754,0.33307403,-5.7375,21.0,-34.3125,left
12345134045220,2.1248264,-3.5760734,8.467601,-0.25045455,-0.25961754,0.33307403,-6.95625,20.5125,-32.23125,left
12345144045168,2.2731814,-3.566502,8.625527,-0.25045455,-0.25961754,0.33307403,-7.6687503,20.868752,-33.075,left
12345134057563,2.2731814,-3.566502,8.625527,-0.25045455,-0.25961754,0.33307403,-7.6687503,20.868752,-33.075,left
12345129094803,2.2731814,-3.566502,8.625527,-0.21991132,-0.24862197,0.33429575,-6.7125,21.075,-30.806252,left
12345154045115,2.2731814,-3.566502,8.625527,-0.21991132,-0.24862197,0.33429575,-6.7125,21.075,-30.806252,left
12345148137824,2.2731814,-3.566502,8.625527,-0.23701553,-0.24129158,0.32085672,-6.7125,21.075,-30.806252,left
12345164045063,2.2731814,-3.566502,8.625527,-0.23701553,-0.24129158,0.32085672,-6.61875,21.018751,-33.975002,left
12345153100584,2.3832514,-3.690929,8.7164545,-0.23701553,-0.24129158,0.32085672,-6.61875,21.018751,-33.975002,left
12345174045011,2.3832514,-3.690929,8.7164545,-0.23701553,-0.24129158,0.32085672,-5.4750004,19.1625,-32.943752,left
12345184044959,2.565106,-3.743571,8.682955,-0.22357652,-0.2290743,0.28542656,-7.55625,20.75625,-33.91875,left
12345167211834,2.565106,-3.743571,8.682955,-0.22357652,-0.2290743,0.28542656,-7.55625,20.75625,-33.91875,left
12345172174595,2.5746772,-3.5569308,8.735598,-0.22357652,-0.2290743,0.28542656,-7.0875,20.325,-31.06875,left
12345186284803,2.5746772,-3.5569308,8.735598,-0.16371176,-0.19486587,0.25610507,-7.0875,20.325,-31.06875,left
12345194044907,2.5746772,-3.5569308,8.735598,-0.22357652,-0.2290743,0.28542656,-7.0875,20.325,-31.06875,left
12345191247563,2.5746772,-3.5569308,8.735598,-0.22357652,-0.2290743,0.28542656,-7.0875,20.325,-31.06875,left
12345214044803,2.5746772,-3.5569308,8.735598,-0.16371176,-0.19486587,0.25610507,-5.7937503,19.78125,-30.562502,left
12345204044855,2.5746772,-3.5569308,8.735598,-0.16371176,-0.19486587,0.25610507,-6.6562505,18.65625,-29.831251,left
12345205358813,2.5746772,-3.5569308,8.735598,-0.16004658,-0.16187917,0.23044874,-5.7937503,19.78125,-30.562502,left
12345210321574,2.5459633,-3.4229329,8.850452,-0.16004658,-0.16187917,0.23044874,-5.7937503,19.78125,-30.562502,left
12345224044751,2.5459633,-3.4229329,8.850452,-0.16004658,-0.16187917,0.23044874,-5.90625,18.45,-28.425001,left
12345234044699,2.5459633,-3.4229329,8.850452,-0.16004658,-0.16187917,0.23044874,-3.8625002,17.6625,-25.781252,left
12345224431834,2.5459633,-3.4229329,8.850452,-0.17715079,-0.14110976,0.21090107,-3.8625002,17.6625,-25.781252,left
12345229394595,2.440679,-3.4947174,8.970094,-0.17715079,-0.14110976,0.21090107,-3.8625002,17.6625,-25.781252,left
12345244044647,2.440679,-3.4947174,8.970094,-0.17715079,-0.14110976,0.21090107,-5.1937504,16.35,-25.650002,left
12345254044595,2.440679,-3.4947174,8.970094,-0.17715079,-0.14110976,0.21090107,-5.30625,16.7625,-25.85625,left
12345248468605,2.3449662,-3.542574,9.037093,-0.17715079,-0.14110976,0.21090107,-5.30625,16.7625,-25.85625,left
12345243505845,2.3449662,-3.542574,9.037093,-0.16493349,-0.13255766,0.20723587,-5.30625,16.7625,-25.85625,left
12345264044543,2.3449662,-3.542574,9.037093,-0.16493349,-0.13255766,0.20723587,-5.025,19.85625,-29.475,left
12345274044490,2.3449662,-3.542574,9.037093,-0.16493349,-0.13255766,0.20723587,-5.71875,20.493752,-30.337502,left
12345267541574,2.2875385,-3.566502,9.075378,-0.16493349,-0.13255766,0.20723587,-5.71875,20.493752,-30.337502,left
12345262578813,2.2875385,-3.566502,9.075378,-0.14416409,-0.12889247,0.21334453,-5.71875,20.493752,-30.337502,left
12345284044438,2.2875385,-3.566502,9.075378,-0.14416409,-0.12889247,0.21334453,-7.74375,21.225,-30.937502,left
12345294044386,2.2875385,-3.566502,9.075378,-0.14416409,-0.12889247,0.21334453,-4.7250004,19.893751,-29.156252,left
12345286615584,2.254039,-3.62393,9.075378,-0.14416409,-0.12889247,0.21334453,-4.7250004,19.893751,-29.156252,left
12345281652824,2.254039,-3.62393,9.075378,-0.13683371,-0.12767074,0.2243401,-4.7250004,19.893751,-29.156252,left
12345304044334,2.254039,-3.62393,9.075378,-0.13683371,-0.12767074,0.2243401,-6.3750005,21.075,-28.725,left
12345305658605,2.2348964,-3.7100716,9.037093,-0.13683371,-0.12767074,0.2243401,-5.90625,20.025002,-29.737501,left
12345314044282,2.2348964,-3.7100716,9.037093,-0.13683371,-0.12767074,0.2243401,-5.90625,20.025002,-29.737501,left
12345300695845,2.2348964,-3.7100716,9.037093,-0.11728604,-0.12767074,0.22800528,-5.90625,20.025002,-29.737501,left
12345324044230,2.2348964,-3.7100716,9.037093,-0.11728604,-0.12767074,0.22800528,-6.5062504,21.525002,-30.975,left
12345334044178,2.2348964,-3.7100716,9.037093,-0.11728604,-0.12767074,0.22800528,-4.3875003,21.487501,-29.41875,left
12345319768813,2.2348964,-3.7100716,9.037093,-0.091629714,-0.12400555,0.22311836,-4.3875003,21.487501,-29.41875,left
12345324731574,2.2492533,-3.6861434,8.979665,-0.091629714,-0.12400555,0.22311836,-4.3875003,21.487501,-29.41875,left
12345344044126,2.2492533,-3.6861434,8.979665,-0.091629714,-0.12400555,0.22311836,-3.99375,19.706251,-29.343752,left
12345343805584,2.2731814,-3.609573,8.94138,-0.091629714,-0.12400555,0.22311836,-3.99375,19.706251,-29.343752,left
12345338842824,2.2731814,-3.609573,8.94138,-0.08307761,-0.11423171,0.2121228,-3.99375,19.706251,-29.343752,left
12345354044074,2.2731814,-3.609573,8.94138,-0.08307761,-0.11423171,0.2121228,-4.36875,20.34375,-28.725,left
12345364044022,2.2731814,-3.609573,8.94138,-0.08307761,-0.11423171,0.2121228,-5.34375,20.925001,-28.593752,left
12345362878605,2.292324,-3.5617166,8.893523,-0.08307761,-0.11423171,0.2121228,-5.34375,20.925001,-28.593752,left
12345357915845,2.292324,-3.5617166,8.893523,-0.09040799,-0.0971275,0.19746204,-5.34375,20.925001,-28.593752,left
12345384043918,2.292324,-3.5617166,8.893523,-0.09040799,-0.0971275,0.19746204,-5.7375,20.175001,-29.2875,left
12345374043970,2.292324,-3.5617166,8.893523,-0.09040799,-0.0971275,0.19746204,-5.7375,20.175001,-29.2875,left
12345376989803,2.2827528,-3.4851463,8.94138,-0.08796453,-0.07391464,0.17669263,-5.7375,20.175001,-29.2875,left
12345381952563,2.2827528,-3.4851463,8.94138,-0.08796453,-0.07391464,0.17669263,-5.7375,20.175001,-29.2875,left
12345394043865,2.2827528,-3.4851463,8.94138,-0.08796453,-0.07391464,0.17669263,-4.5750003,21.337502,-29.56875,left
12345404043813,2.2827528,-3.4851463,8.94138,-0.08796453,-0.07391464,0.17669263,-4.4437504,19.63125,-28.368752,left
12345401025584,2.306681,-3.4612179,9.061021,-0.08796453,-0.07391464,0.17669263,-4.4437504,19.63125,-28.368752,left
12345396062824,2.306681,-3.4612179,9.061021,-0.068416856,-0.045814857,0.1424842,-4.4437504,19.63125,-28.368752,left
12345414043761,2.306681,-3.4612179,9.061021,-0.068416856,-0.045814857,0.1424842,-6.1312504,19.44375,-29.85,left
12345424043709,2.306681,-3.4612179,9.061021,-0.068416856,-0.045814857,0.1424842,-6.3187504,20.56875,-30.843752,left
12345420099595,2.3545375,-3.4325042,9.199805,-0.068416856,-0.045814857,0.1424842,-6.3187504,20.56875,-30.843752,left
12345415136834,2.3545375,-3.4325042,9.199805,-0.037873615,-0.022601997,0.10216714,-6.3187504,20.56875,-30.843752,left
12345434043657,2.3545375,-3.4325042,9.199805,-0.037873615,-0.022601997,0.10216714,-6.20625,21.5625,-30.6375,left
12345444043605,2.3545375,-3.4325042,9.199805,-0.037873615,-0.022601997,0.10216714,-5.7562504,21.6375,-31.181252,left
12345439172563,2.3784657,-3.4947174,9.2285185,-0.037873615,-0.022601997,0.10216714,-5.7562504,21.6375,-31.181252,left
12345434209803,2.3784657,-3.4947174,9.2285185,-0.0048869182,0.0006108648,0.066736974,-5.7562504,21.6375,-31.181252,left
12345454043553,2.3784657,-3.4947174,9.2285185,-0.0048869182,0.0006108648,0.066736974,-5.1375003,18.84375,-29.1,left
12345464043501,2.3784657,-3.4947174,9.2285185,-0.0048869182,0.0006108648,0.066736974,-4.21875,20.212502,-28.25625,left
12345458246574,2.4119651,-3.5904303,9.0849495,-0.0048869182,0.0006108648,0.066736974,-4.21875,20.212502,-28.25625,left
12345453283813,2.4119651,-3.5904303,9.0849495,-0.0012217296,0.027488915,0.022754714,-4.21875,20.212502,-28.25625,left
12345474043449,2.4119651,-3.5904303,9.0849495,-0.0012217296,0.027488915,0.022754714,-4.74375,21.16875,-30.000002,left
12345484043397,2.4119651,-3.5904303,9.0849495,-0.0012217296,0.027488915,0.022754714,-5.08125,22.10625,-29.550001,left
12345477289595,2.4119651,-3.7244284,8.946166,-0.0012217296,0.027488915,0.022754714,-5.08125,22.10625,-29.550001,left
12345472326834,2.4119651,-3.7244284,8.946166,-0.0012217296,0.058032155,-0.011453714,-6.7500005,17.625,-28.725,left
12345494043345,2.4119651,-3.7244284,8.946166,-0.0012217296,0.058032155,-0.011453714,-6.7500005,17.625,-28.725,left
12345504043293,2.4119651,-3.7244284,8.946166,-0.0012217296,0.058032155,-0.011453714,-2.34375,19.612501,-28.406252,left
12345496362563,2.4071796,-3.7962132,8.874381,0.0024434591,0.082466744,-0.037110034,-2.34375,19.612501,-28.406252,left
12345491399803,2.4071796,-3.7962132,8.874381,0.0024434591,0.082466744,-0.037110034,-2.34375,19.612501,-28.406252,left
12345514043240,2.4071796,-3.7962132,8.874381,0.0024434591,0.082466744,-0.037110034,-4.7625003,19.612501,-29.41875,left
12345524043188,2.4071796,-3.7962132,8.874381,0.0024434591,0.082466744,-0.037110034,-5.55,20.643751,-30.0375,left
12345515436574,2.3784657,-3.8009987,8.826525,0.0024434591,0.082466744,-0.037110034,-5.55,20.643751,-30.0375,left
12345510473813,2.3784657,-3.8009987,8.826525,0.012217295,0.09957096,-0.05299252,-5.55,20.643751,-30.0375,left
12345534043136,2.3784657,-3.8009987,8.826525,0.012217295,0.09957096,-0.05299252,-5.64375,21.225,-30.975,left
12345544043084,2.3784657,-3.8009987,8.826525,0.012217295,0.09957096,-0.05299252,-5.49375,21.075,-29.79375,left
12345534509595,2.3162522,-3.743571,8.840881,0.012217295,0.09957096,-0.05299252,-5.49375,21.075,-29.79375,left
12345529546834,2.3162522,-3.743571,8.840881,0.021991132,0.108123064,-0.05665771,-5.49375,21.075,-29.79375,left
12345554043032,2.3162522,-3.743571,8.840881,0.021991132,0.108123064,-0.05665771,-5.5687504,20.34375,-29.437502,left
12345553583605,2.292324,-3.772285,8.816954,0.0061086477,0.10690133,-0.05177079,-4.6125,19.462502,-28.518751,left
12345548620845,2.292324,-3.772285,8.816954,0.0061086477,0.10690133,-0.05177079,-4.6125,19.462502,-28.518751,left
12345564042980,2.292324,-3.772285,8.816954,0.0061086477,0.10690133,-0.05177079,-4.6125,19.462502,-28.518751,left
12345574042928,2.292324,-3.772285,8.816954,0.0061086477,0.10690133,-0.05177079,-5.625,20.081251,-30.73125,left
12345567693813,2.2971098,-3.8727834,8.769096,-0.0048869182,0.09834923,-0.045662142,-5.625,20.081251,-30.73125,left
12345572656574,2.2971098,-3.8727834,8.769096,-0.0048869182,0.09834923,-0.045662142,-6.0937505,19.725,-29.587502,left
12345584042876,2.2971098,-3.8727834,8.769096,-0.0048869182,0.09834923,-0.045662142,-6.0937505,19.725,-29.587502,left
12345594042824,2.2971098,-3.8727834,8.769096,-0.0048869182,0.09834923,-0.045662142,-5.7562504,21.6375,-31.181252,left
12345591730584,2.2588246,-3.9158542,8.75474,0.0,0.08613193,-0.037110034,-6.4500003,20.85,-31.7625,left
12345586767824,2.2588246,-3.9158542,8.75474,0.0,0.08613193,-0.037110034,-6.4500003,20.85,-31.7625,left
12345604042772,2.2588246,-3.9158542,8.75474,0.0,0.08613193,-0.037110034,-6.4500003,20.85,-31.7625,left
12345614042720,2.2588246,-3.9158542,8.75474,0.0,0.08613193,-0.037110034,-4.1062503,23.1375,-32.006252,left
12345610803605,2.2444677,-3.867998,8.745169,0.0,0.08613193,-0.037110034,-4.1062503,23.1375,-32.006252,left
12345605840845,2.2444677,-3.867998,8.745169,0.0061086477,0.07024945,-0.02367101,-5.3250003,21.54375,-30.975,left
12345624042668,2.2444677,-3.867998,8.745169,0.0061086477,0.07024945,-0.02367101,-5.3250003,21.54375,-30.975,left
12345634042615,2.2444677,-3.867998,8.745169,0.0061086477,0.07024945,-0.02367101,-5.55,20.643751,-29.75625,left
12345629877563,2.225325,-3.839284,8.764311,0.0036651888,0.053145237,-0.013897174,-5.55,20.643751,-29.75625,left
12345624914803,2.225325,-3.839284,8.764311,0.0036651888,0.053145237,-0.013897174,-5.55,20.643751,-29.75625,left
12345644042563,2.225325,-3.839284,8.764311,0.0036651888,0.053145237,-0.013897174,-5.6625004,21.225,-31.425001,left
12345654042511,2.225325,-3.839284,8.764311,0.0036651888,0.053145237,-0.013897174,-4.78125,22.3125,-30.69375,left
12345648920584,2.1870399,-3.8297126,8.797811,-0.0036651888,0.037262753,-0.0029016077,-4.78125,22.3125,-30.69375,left
12345643957824,2.1870399,-3.8297126,8.797811,-0.0036651888,0.037262753,-0.0029016077,-4.78125,22.3125,-30.69375,left
12345664042459,2.1870399,-3.8297126,8.797811,-0.0036651888,0.037262753,-0.0029016077,-5.9812503,20.8875,-30.993752,left
12345674042407,2.1870399,-3.8297126,8.797811,-0.0036651888,0.037262753,-0.0029016077,-6.1875005,22.050001,-33.018753,left
12345667993605,2.1343977,-3.863212,8.836096,-0.0036651888,0.037262753,-0.0029016077,-6.1875005,22.050001,-33.018753,left
12345663030845,2.1343977,-3.863212,8.836096,-0.013439025,0.020158539,0.0019853106,-6.1875005,22.050001,-33.018753,left
12345684042355,2.1343977,-3.863212,8.836096,-0.013439025,0.020158539,0.0019853106,-6.7312503,22.5375,-32.831253,left
12345694042303,2.1343977,-3.863212,8.836096,-0.013439025,0.020158539,0.0019853106,-6.4125004,22.556252,-31.781252,left
12345687067563,2.120041,-3.8584266,8.821739,-0.0048869182,0.0067195124,0.008093959,-6.4125004,22.556252,-31.781252,left
12345682104803,2.120041,-3.8584266,8.821739,-0.0048869182,0.0067195124,0.008093959,-6.4125004,22.556252,-31.781252,left
12345704042251,2.120041,-3.8584266,8.821739,-0.0048869182,0.0067195124,0.008093959,-6.9,20.94375,-31.968752,left
12345714042199,2.120041,-3.8584266,8.821739,-0.0048869182,0.0067195124,0.008093959,-4.96875,23.4375,-31.706251,left
12345706140584,2.1535404,-3.839284,8.802596,-0.0048869182,0.0067195124,0.008093959,-4.96875,23.4375,-31.706251,left
12345701177824,2.1535404,-3.839284,8.802596,0.0,-0.0018325944,0.009315688,-6.5437503,21.243752,-30.656252,left
12345724042147,2.1535404,-3.839284,8.802596,0.0,-0.0018325944,0.009315688,-6.5437503,21.243752,-30.656252,left
12345734042095,2.1535404,-3.839284,8.802596,0.0,-0.0018325944,0.009315688,-5.68125,22.35,-31.237501,left
12345725213605,2.1296122,-3.8201413,8.836096,0.0,-0.0018325944,0.009315688,-5.68125,22.35,-31.237501,left
12345720250845,2.1296122,-3.8201413,8.836096,0.0,-0.007941242,0.011759147,-5.68125,22.35,-31.237501,left
12345744042043,2.1296122,-3.8201413,8.836096,0.0,-0.007941242,0.011759147,-6.5062504,22.0125,-33.05625,left
12345744287563,2.1487548,-3.7914274,8.836096,0.0,-0.007941242,0.011759147,-6.4687505,21.975,-31.743752,left
12345754041990,2.1487548,-3.7914274,8.836096,0.0,-0.007941242,0.011759147,-6.4687505,21.975,-31.743752,left
12345739324803,2.1487548,-3.7914274,8.836096,0.010995566,-0.011606431,0.017867794,-6.4687505,21.975,-31.743752,left
12345764041938,2.1487548,-3.7914274,8.836096,0.010995566,-0.011606431,0.017867794,-6.20625,22.837502,-30.618752,left
12345763360584,2.1343977,-3.7914274,8.855238,0.0048869182,-0.0140498895,0.019089524,-6.20625,22.837502,-30.618752,left
12345758397824,2.1343977,-3.7914274,8.855238,0.0048869182,-0.0140498895,0.019089524,-6.20625,22.837502,-30.618752,left
12345774041886,2.1343977,-3.7914274,8.855238,0.0048869182,-0.0140498895,0.019089524,-5.7000003,22.368752,-31.968752,left
12345784041834,2.1343977,-3.7914274,8.855238,0.0048869182,-0.0140498895,0.019089524,-5.2125,21.13125,-30.7875,left
12345777471834,2.1391835,-3.8057845,8.898309,-0.0061086477,-0.01527162,0.019089524,-5.2125,21.13125,-30.7875,left
12345782434595,2.1391835,-3.8057845,8.898309,-0.0061086477,-0.01527162,0.019089524,-5.2125,21.13125,-30.7875,left
12345794041782,2.1391835,-3.8057845,8.898309,-0.0061086477,-0.01527162,0.019089524,-5.9625,21.525002,-33.375,left
12345804041730,2.1391835,-3.8057845,8.898309,-0.0061086477,-0.01527162,0.019089524,-5.45625,21.675001,-31.143751,left
12345801507563,2.172683,-3.7914274,8.898309,-0.0061086477,-0.01527162,0.019089524,-5.45625,21.675001,-31.143751,left
12345814041678,2.172683,-3.7914274,8.898309,-0.0036651888,-0.01282816,0.019089524,-6.5437503,21.243752,-30.937502,left
12345796544803,2.172683,-3.7914274,8.898309,-0.0036651888,-0.01282816,0.019089524,-6.5437503,21.243752,-30.937502,left
12345824041626,2.172683,-3.7914274,8.898309,-0.0036651888,-0.01282816,0.019089524,-7.6125,21.431252,-33.112503,left
12345820550584,2.1966112,-3.7292142,8.907881,0.0048869182,-0.009162972,0.020311253,-7.6125,21.431252,-33.112503,left
12345815587824,2.1966112,-3.7292142,8.907881,0.0048869182,-0.009162972,0.020311253,-7.6125,21.431252,-33.112503,left
12345834041574,2.1966112,-3.7292142,8.907881,0.0048869182,-0.009162972,0.020311253,-5.68125,22.66875,-33.018753,left
12345844041522,2.1966112,-3.7292142,8.907881,0.0048869182,-0.009162972,0.020311253,-5.175,21.75,-33.16875,left
12345839624595,2.210968,-3.6813576,8.94138,0.0048869182,-0.009162972,0.020311253,-5.175,21.75,-33.16875,left
12345834661834,2.210968,-3.6813576,8.94138,0.0097738365,-0.0030543238,0.022754714,-5.175,21.75,-33.16875,left
12345854041470,2.210968,-3.6813576,8.94138,0.0097738365,-0.0030543238,0.022754714,-5.4750004,21.375,-30.843752,left
12345864041418,2.210968,-3.6813576,8.94138,0.0097738365,-0.0030543238,0.022754714,-6.2625003,20.98125,-30.150002,left
12345853734803,2.210968,-3.690929,8.936594,0.0024434591,-0.0006108648,0.026419902,-6.2625003,20.98125,-30.150002,left
12345858697563,2.210968,-3.690929,8.936594,0.0024434591,-0.0006108648,0.026419902,-6.2625003,20.98125,-30.150002,left
12345874041365,2.210968,-3.690929,8.936594,0.0024434591,-0.0006108648,0.026419902,-6.2250004,21.6,-31.95,left
12345884041313,2.210968,-3.690929,8.936594,0.0024434591,-0.0006108648,0.026419902,-6.4687505,21.956251,-31.0125,left
12345872808813,2.1870399,-3.7387853,8.907881,-0.008552107,0.0030543238,0.023976443,-6.4687505,21.956251,-31.0125,left
12345877771574,2.1870399,-3.7387853,8.907881,-0.008552107,0.0030543238,0.023976443,-6.4687505,21.956251,-31.0125,left
12345894041261,2.1870399,-3.7387853,8.907881,-0.008552107,0.0030543238,0.023976443,-5.86875,22.21875,-32.568752,left
12345904041209,2.1678972,-3.7962132,8.893523,-0.008552107,0.0030543238,0.023976443,-6.525,21.54375,-31.25625,left
12345896844595,2.1678972,-3.7962132,8.893523,-0.008552107,0.0030543238,0.023976443,-6.525,21.54375,-31.25625,left
12345891881834,2.1678972,-3.7962132,8.893523,-0.013439025,0.005497783,0.016646065,-6.525,21.54375,-31.25625,left
12345914041157,2.1678972,-3.7962132,8.893523,-0.013439025,0.005497783,0.016646065,-5.71875,22.06875,-31.650002,left
12345924041105,2.1678972,-3.7962132,8.893523,-0.013439025,0.005497783,0.016646065,-5.625,20.1,-31.0125,left
12345915918605,2.1870399,-3.81057,8.816954,-0.0073303776,0.009162972,0.006872229,-5.625,20.1,-31.0125,left
12345910955845,2.1870399,-3.81057,8.816954,-0.0073303776,0.009162972,0.006872229,-5.625,20.1,-31.0125,left
12345934041053,2.1870399,-3.81057,8.816954,-0.0073303776,0.009162972,0.006872229,-6.3187504,22.1625,-32.60625,left
12345944041001,2.1870399,-3.81057,8.816954,-0.0073303776,0.009162972,0.006872229,-5.53125,23.643751,-31.35,left
12345934991574,2.225325,-3.7674992,8.778668,-0.0073303776,0.009162972,0.006872229,-5.53125,23.643751,-31.35,left
12345930028813,2.225325,-3.7674992,8.778668,0.0048869182,0.011606431,-0.0004581486,-4.05,23.400002,-30.431252,left
12345954040949,2.225325,-3.7674992,8.778668,0.0048869182,0.011606431,-0.0004581486,-4.05,23.400002,-30.431252,left
12345964040897,2.225325,-3.7674992,8.778668,0.0048869182,0.011606431,-0.0004581486,-4.96875,23.775002,-33.3375,left
12345949102824,2.2301106,-3.7818563,8.783454,0.0073303776,0.01282816,-0.004123337,-4.96875,23.775002,-33.3375,left
12345954065584,2.2301106,-3.7818563,8.783454,0.0073303776,0.01282816,-0.004123337,-4.96875,23.775002,-33.3375,left
12345974040845,2.2301106,-3.7818563,8.783454,0.0073303776,0.01282816,-0.004123337,-5.4,23.53125,-31.612501,left
12345968145845,2.2157538,-3.8153558,8.826525,0.0036651888,0.011606431,-0.004123337,-6.0750003,23.04375,-32.8125,left
12345984040793,2.2157538,-3.8153558,8.826525,0.0036651888,0.011606431,-0.004123337,-6.0750003,23.04375,-32.8125,left
12345973108605,2.2157538,-3.8153558,8.826525,0.0036651888,0.011606431,-0.004123337,-6.0750003,23.04375,-32.8125,left
12345994040740,2.2157538,-3.8153558,8.826525,0.0036651888,0.011606431,-0.004123337,-6.3,22.125,-30.562502,left
12345987218813,2.2157538,-3.8153558,8.826525,-0.0012217296,0.0067195124,-0.004123337,-6.3,22.125,-30.562502,left
12346004040688,2.2157538,-3.8153558,8.826525,-0.0012217296,0.0067195124,-0.004123337,-6.6000004,22.087502,-31.181252,left
12345992181574,2.1822543,-3.839284,8.845667,-0.0012217296,0.0067195124,-0.004123337,-6.6000004,22.087502,-31.181252,left
12346014040636,2.1822543,-3.839284,8.845667,-0.0012217296,0.0067195124,-0.004123337,-5.5687504,20.6625,-31.06875,left
12346011255584,2.158326,-3.8297126,8.86481,-0.0012217296,0.0067195124,-0.004123337,-5.5687504,20.6625,-31.06875,left
12346006292824,2.158326,-3.8297126,8.86481,0.0012217296,0.0018325944,0.00076358096,-5.5687504,20.6625,-31.06875,left
12346034040532,2.158326,-3.8297126,8.86481,0.0012217296,0.0018325944,0.00076358096,-6.8437505,21.525002,-32.30625,left
12346024040584,2.158326,-3.8297126,8.86481,0.0012217296,0.0018325944,0.00076358096,-6.8437505,21.525002,-32.30625,left
12346030328605,2.158326,-3.7866418,8.83131,0.0036651888,-0.0042760535,0.00320704,-6.8437505,21.525002,-32.30625,left
12346025365845,2.158326,-3.7866418,8.83131,0.0036651888,-0.0042760535,0.00320704,-6.8437505,21.525002,-32.30625,left
12346044040480,2.158326,-3.7866418,8.83131,0.0036651888,-0.0042760535,0.00320704,-5.6062503,24.487501,-31.743752,left
12346054040428,2.158326,-3.7866418,8.83131,0.0036651888,-0.0042760535,0.00320704,-6.39375,21.112501,-30.487501,left
12346049402563,2.1822543,-3.757928,8.821739,0.0012217296,-0.0067195124,0.0056504994,-6.39375,21.112501,-30.487501,left
12346044439803,2.1822543,-3.757928,8.821739,0.0012217296,-0.0067195124,0.0056504994,-6.39375,21.112501,-30.487501,left
12346064040376,2.1822543,-3.757928,8.821739,0.0012217296,-0.0067195124,0.0056504994,-5.8125,22.462502,-30.54375,left
12346074040324,2.1822543,-3.757928,8.821739,0.0012217296,-0.0067195124,0.0056504994,-6.2812505,22.425001,-31.612501,left
12346068475584,2.1822543,-3.7627137,8.816954,0.0012217296,-0.0067195124,0.008093959,-3.4875002,21.7875,-30.7875,left
12346084040272,2.1822543,-3.7627137,8.816954,0.0012217296,-0.0067195124,0.008093959,-3.4875002,21.7875,-30.7875,left
12346063512824,2.1822543,-3.7627137,8.816954,0.0012217296,-0.0067195124,0.008093959,-3.4875002,21.7875,-30.7875,left
12346094040220,2.1822543,-3.7627137,8.816954,0.0012217296,-0.0067195124,0.008093959,-5.9812503,20.8875,-30.4125,left
12346087549595,2.201397,-3.772285,8.860024,0.0012217296,-0.0067195124,0.008093959,-5.9812503,20.8875,-30.4125,left
12346082586834,2.201397,-3.772285,8.860024,0.0,-0.0067195124,0.009315688,-5.9812503,20.8875,-30.4125,left
12346104040168,2.201397,-3.772285,8.860024,0.0,-0.0067195124,0.009315688,-6.0937505,24.150002,-31.7625,left
12346114040115,2.201397,-3.772285,8.860024,0.0,-0.0067195124,0.009315688,-4.05,21.806252,-29.118752,left
12346106622563,2.1918256,-3.7914274,8.888738,-0.0048869182,-0.009162972,0.0056504994,-4.05,21.806252,-29.118752,left
12346101659803,2.1918256,-3.7914274,8.888738,-0.0048869182,-0.009162972,0.0056504994,-4.05,21.806252,-29.118752,left
12346124040063,2.1918256,-3.7914274,8.888738,-0.0048869182,-0.009162972,0.0056504994,-3.8812501,21.1875,-31.800001,left
12346134040011,2.1918256,-3.7914274,8.888738,-0.0048869182,-0.009162972,0.0056504994,-4.0687504,22.3125,-32.5125,left
12346125696574,2.201397,-3.8009987,8.86481,-0.0048869182,-0.010384701,0.00320704,-4.0687504,22.3125,-32.5125,left
12346120733813,2.201397,-3.8009987,8.86481,-0.0048869182,-0.010384701,0.00320704,-4.0687504,22.3125,-32.5125,left
12346144039959,2.201397,-3.8009987,8.86481,-0.0048869182,-0.010384701,0.00320704,-4.70625,21.7875,-31.800001,left
12346154039907,2.201397,-3.8009987,8.86481,-0.0048869182,-0.010384701,0.00320704,-6.4500003,20.85,-31.7625,left
12346144739595,2.2301106,-3.7818563,8.826525,-0.0036651888,-0.01282816,0.00076358096,-6.4500003,20.85,-31.7625,left
12346139776834,2.2301106,-3.7818563,8.826525,-0.0036651888,-0.01282816,0.00076358096,-6.4500003,20.85,-31.7625,left
12346164039855,2.2301106,-3.7818563,8.826525,-0.0036651888,-0.01282816,0.00076358096,-6.3187504,23.587502,-32.8875,left
12346174039803,2.2205393,-3.8153558,8.821739,-0.0036651888,-0.01282816,0.00076358096,-5.2875004,23.4375,-32.756252,left
12346163812563,2.2205393,-3.8153558,8.821739,-0.0036651888,-0.01282816,0.00076358096,-5.2875004,23.4375,-32.756252,left
12346158849803,2.2205393,-3.8153558,8.821739,-0.0036651888,-0.01282816,0.0019853106,-5.2875004,23.4375,-32.756252,left
12346184039751,2.2205393,-3.8153558,8.821739,-0.0036651888,-0.01282816,0.0019853106,-5.55,22.556252,-33.131252,left
12346177923813,2.2205393,-3.8153558,8.821739,-0.0036651888,-0.011606431,0.00320704,-5.55,23.4375,-32.756252,left
12346194039699,2.2205393,-3.8153558,8.821739,-0.0036651888,-0.011606431,0.00320704,-5.2875004,23.4375,-32.756252,left
12346182886574,2.2444677,-3.8153558,8.840881,-0.0036651888,-0.011606431,0.00320704,-5.2875004,23.4375,-32.756252,left
12346204039647,2.2444677,-3.8153558,8.840881,-0.0036651888,-0.011606431,0.00320704,-4.6125,22.800001,-32.625,left
12346201959595,2.239682,-3.8153558,8.86481,-0.0024434591,-0.009162972,0.0044287695,-4.6125,22.800001,-32.625,left
12346196996834,2.239682,-3.8153558,8.86481,-0.0024434591,-0.009162972,0.0044287695,-4.6125,22.800001,-32.625,left
12346214039595,2.239682,-3.8153558,8.86481,-0.0024434591,-0.009162972,0.0044287695,-5.08125,22.44375,-31.9125,left
12346224039543,2.239682,-3.8153558,8.86481,-0.0024434591,-0.009162972,0.0044287695,-5.49375,22.96875,-32.5875,left
12346221033605,2.2205393,-3.7818563,8.86481,-0.0024434591,-0.007941242,0.0044287695,-5.49375,22.96875,-32.5875,left
12346216070845,2.2205393,-3.7818563,8.86481,-0.0024434591,-0.007941242,0.0044287695,-5.49375,22.96875,-32.5875,left
12346234039490,2.2205393,-3.7818563,8.86481,-0.0024434591,-0.007941242,0.0044287695,-5.9625,21.1875,-31.44375,left
12346244039438,2.2205393,-3.7818563,8.86481,-0.0024434591,-0.007941242,0.0044287695,-5.0437503,23.98125,-31.181252,left
12346235143813,2.1966112,-3.7770705,8.855238,-0.0048869182,-0.007941242,0.00320704,-5.0437503,23.98125,-31.181252,left
12346240106574,2.1966112,-3.7770705,8.855238,-0.0048869182,-0.007941242,0.00320704,-5.0437503,23.98125,-31.181252,left
12346254039386,2.1966112,-3.7770705,8.855238,-0.0048869182,-0.007941242,0.00320704,-6.1687503,23.4375,-31.987501,left
12346264039334,2.1966112,-3.7770705,8.855238,-0.0048869182,-0.007941242,0.00320704,-5.025,23.19375,-33.28125,left
12346254217824,2.1822543,-3.7674992,8.836096,-0.0024434591,-0.005497783,-0.0004581486,-5.025,23.19375,-33.28125,left
12346259180584,2.1822543,-3.7674992,8.836096,-0.0024434591,-0.005497783,-0.0004581486,-5.025,23.19375,-33.28125,left
12346274039282,2.1822543,-3.7674992,8.836096,-0.0024434591,-0.005497783,-0.0004581486,-3.5625002,24.206251,-32.49375,left
12346284039230,2.1822543,-3.7674992,8.836096,-0.0024434591,-0.005497783,-0.0004581486,-6.1312504,19.7625,-31.9125,left
12346278253605,2.1822543,-3.7962132,8.855238,-0.0012217296,-0.0030543238,-0.0029016077,-6.1312504,19.7625,-31.9125,left
12346273290845,2.1822543,-3.7962132,8.855238,-0.0012217296,-0.0030543238,-0.0029016077,-6.1312504,19.7625,-31.9125,left
12346294039178,2.1822543,-3.7962132,8.855238,-0.0012217296,-0.0030543238,-0.0029016077,-3.99375,22.875,-32.11875,left
12346304039126,2.1822543,-3.7962132,8.855238,-0.0012217296,-0.0030543238,-0.0029016077,-5.15625,21.73125,-31.85625,left
12346297327563,2.1918256,-3.8009987,8.855238,0.0,-0.0018325944,-0.005345067,-5.15625,21.73125,-31.85625,left
12346292364803,2.1918256,-3.8009987,8.855238,0.0,-0.0018325944,-0.005345067,-5.15625,21.73125,-31.85625,left
12346314039074,2.1918256,-3.8009987,8.855238,0.0,-0.0018325944,-0.005345067,-3.7125,22.78125,-32.662502,left
12346324039022,2.1918256,-3.8009987,8.855238,0.0,-0.0018325944,-0.005345067,-4.74375,21.825,-34.143753,left
12346311406834,2.1631117,-3.7962132,8.869596,0.0,0.0006108648,-0.0029016077,-4.74375,21.825,-34.143753,left
12346316369595,2.1631117,-3.7962132,8.869596,0.0,0.0006108648,-0.0029016077,-4.74375,21.825,-34.143753,left
12346334038970,2.1631117,-3.7962132,8.869596,0.0,0.0006108648,-0.0029016077,-5.0437503,24.31875,-33.2625,left
12346344038918,2.1631117,-3.7962132,8.869596,0.0,0.0006108648,-0.0029016077,-6.2625003,22.425001,-31.181252,left
12346335443605,2.172683,-3.8344984,8.855238,-0.0036651888,-0.0018325944,-0.004123337,-6.2625003,22.425001,-31.181252,left
12346330480845,2.172683,-3.8344984,8.855238,-0.0036651888,-0.0018325944,-0.004123337,-6.2625003,22.425001,-31.181252,left
12346354038865,2.172683,-3.8344984,8.855238,-0.0036651888,-0.0018325944,-0.004123337,-6.6562505,21.84375,-32.90625,left
12346364038813,2.172683,-3.8344984,8.855238,-0.0036651888,-0.0018325944,-0.004123337,-5.5687504,23.681252,-33.112503,left
12346354516574,2.1774685,-3.8201413,8.83131,0.0024434591,-0.0018325944,-0.0029016077,-5.5687504,23.681252,-33.112503,left
12346349553813,2.1774685,-3.8201413,8.83131,0.0024434591,-0.0018325944,-0.0029016077,-5.5687504,23.681252,-33.112503,left
12346374038761,2.1774685,-3.8201413,8.83131,0.0024434591,-0.0018325944,-0.0029016077,-6.80625,23.400002,-34.0875,left
12346384038709,2.1870399,-3.7818563,8.855238,0.0024434591,-0.0042760535,0.00076358096,-5.775,22.9125,-31.1625,left
12346368627824,2.1870399,-3.7818563,8.855238,0.0024434591,-0.0042760535,0.00076358096,-5.775,22.9125,-31.1625,left
12346373590584,2.1870399,-3.7818563,8.855238,0.0024434591,-0.0042760535,0.00076358096,-5.775,22.9125,-31.1625,left
12346394038657,2.1870399,-3.7818563,8.855238,0.0024434591,-0.0042760535,0.00076358096,-5.53125,21.112501,-32.11875,left
