# Session ID: 20250816_083517
# Device ID: left
# Start Time: 1755326117344
# Sample Count: 10939
# Generated by Watch IMU Recorder
timestamp,accel_x,accel_y,accel_z,gyro_x,gyro_y,gyro_z,mag_x,mag_y,mag_z,watch_name
9578532078261,0.11485548,0.06580263,9.793225,0.0,-0.0018325944,-0.0004581486,107.4,56.41875,117.693756,left
9578551152272,0.09571291,0.061016977,9.793225,0.0,-0.0018325944,-0.0004581486,107.4,56.41875,117.693756,left
9578570225240,0.10049855,0.061016977,9.798011,0.0,-0.0018325944,-0.0004581486,107.4,56.41875,117.693756,left
9578589299251,0.1052842,0.05623133,9.798011,0.0,-0.0018325944,-0.0004581486,107.4,56.41875,117.693756,left
9578616128782,0.1052842,0.05623133,9.798011,0.0,-0.0018325944,-0.0004581486,105.58125,56.175003,117.95625,left
9578603379511,0.1052842,0.05623133,9.798011,0.0,0.0006108648,-0.0004581486,105.58125,56.175003,117.95625,left
9578608342272,0.10049855,0.06580263,9.798011,0.0,0.0006108648,-0.0004581486,105.58125,56.175003,117.95625,left
9578626128730,0.10049855,0.06580263,9.798011,0.0,0.0006108648,-0.0004581486,104.193756,55.537502,119.45625,left
9578636128678,0.10049855,0.06580263,9.798011,0.0,0.0006108648,-0.0004581486,105.225006,53.812504,120.318756,left
9578627415240,0.10049855,0.061016977,9.807582,0.0,0.0006108648,0.00076358096,105.225006,53.812504,120.318756,left
9578622452480,0.10049855,0.061016977,9.807582,0.0,0.0006108648,0.00076358096,105.225006,53.812504,120.318756,left
9578646128626,0.10049855,0.061016977,9.807582,0.0,0.0006108648,0.00076358096,106.4625,54.093754,121.31251,left
9578656128574,0.11006984,0.07058827,9.793225,0.0,0.0006108648,0.00076358096,105.58125,54.600002,118.96876,left
9578641526490,0.11006984,0.07058827,9.793225,0.0,0.0006108648,0.00076358096,105.58125,54.600002,118.96876,left
9578646489251,0.11006984,0.07058827,9.793225,0.0,0.0006108648,0.00076358096,105.58125,54.600002,118.96876,left
9578666128522,0.11006984,0.07058827,9.793225,0.0,0.0006108648,0.00076358096,106.59376,55.912502,117.075005,left
9578665562272,0.11485548,0.07058827,9.788439,0.0,0.0006108648,0.00076358096,106.59376,55.912502,117.075005,left
9578660599511,0.11485548,0.07058827,9.788439,-0.0012217296,0.0006108648,-0.0004581486,106.59376,55.912502,117.075005,left
9578676128469,0.11485548,0.07058827,9.788439,-0.0012217296,0.0006108648,-0.0004581486,104.15626,55.256252,119.175,left
9578686128417,0.11485548,0.07058827,9.788439,-0.0012217296,0.0006108648,-0.0004581486,105.05625,55.55625,117.37501,left
9578679673522,0.11485548,0.07058827,9.788439,0.0,0.0006108648,-0.0004581486,105.8625,52.912502,120.037506,left
9578696128365,0.11485548,0.07058827,9.788439,0.0,0.0006108648,-0.0004581486,105.8625,52.912502,120.037506,left
9578684636282,0.11485548,0.06580263,9.798011,0.0,0.0006108648,-0.0004581486,105.8625,52.912502,120.037506,left
9578706128313,0.11485548,0.06580263,9.798011,0.0,0.0006108648,-0.0004581486,106.275,53.9625,119.700005,left
9578698746490,0.11485548,0.06580263,9.798011,-0.0012217296,-0.0006108648,-0.0004581486,106.275,53.9625,119.700005,left
9578703709251,0.1052842,0.061016977,9.793225,-0.0012217296,-0.0006108648,-0.0004581486,106.275,53.9625,119.700005,left
9578716128261,0.1052842,0.061016977,9.793225,-0.0012217296,-0.0006108648,-0.0004581486,106.818756,54.562504,121.59376,left
9578726128209,0.1052842,0.061016977,9.793225,-0.0012217296,-0.0006108648,-0.0004581486,105.037506,53.362503,120.76875,left
9578717820501,0.11006984,0.051445685,9.793225,0.0,0.0006108648,-0.0004581486,105.037506,53.362503,120.76875,left
9578722783261,0.11006984,0.051445685,9.793225,0.0,0.0006108648,-0.0004581486,105.037506,53.362503,120.76875,left
9578736128157,0.11006984,0.051445685,9.793225,0.0,0.0006108648,-0.0004581486,107.700005,54.562504,120.825005,left
9578746128105,0.11006984,0.051445685,9.793225,0.0,0.0006108648,-0.0004581486,106.631256,54.43125,120.412506,left
9578741856282,0.10049855,0.05623133,9.788439,0.0,0.0006108648,-0.0004581486,106.631256,54.43125,120.412506,left
9578756128053,0.10049855,0.05623133,9.788439,0.0,0.0006108648,-0.0004581486,107.08125,54.487503,120.46876,left
9578736893522,0.10049855,0.05623133,9.788439,0.0,0.0006108648,-0.0004581486,107.08125,54.487503,120.46876,left
9578766128001,0.10049855,0.05623133,9.788439,0.0,0.0006108648,-0.0004581486,107.100006,53.2125,120.450005,left
9578760930240,0.11485548,0.061016977,9.788439,0.0,0.0006108648,-0.0004581486,107.100006,53.2125,120.450005,left
9578755967480,0.11485548,0.061016977,9.788439,0.0,0.0006108648,-0.0004581486,107.100006,53.2125,120.450005,left
9578776127949,0.11485548,0.061016977,9.788439,0.0,0.0006108648,-0.0004581486,106.33125,54.393753,119.943756,left
9578786127897,0.11485548,0.061016977,9.788439,0.0,0.0006108648,-0.0004581486,105.525,53.850002,120.356255,left
9578780003261,0.11006984,0.061016977,9.793225,0.0,0.0006108648,-0.0004581486,105.525,53.850002,120.356255,left
9578775040501,0.11006984,0.061016977,9.793225,0.0,0.0006108648,-0.0004581486,105.525,53.850002,120.356255,left
9578796127844,0.11006984,0.061016977,9.793225,0.0,0.0006108648,-0.0004581486,107.26875,54.6375,120.9,left
9578806127792,0.11006984,0.061016977,9.793225,0.0,0.0006108648,-0.0004581486,105.787506,55.031254,119.68125,left
9578794114511,0.1052842,0.06580263,9.793225,0.0,0.0018325944,-0.0004581486,105.787506,55.031254,119.68125,left
9578799077272,0.1052842,0.06580263,9.793225,0.0,0.0018325944,-0.0004581486,105.787506,55.031254,119.68125,left
9578816127740,0.1052842,0.06580263,9.793225,0.0,0.0018325944,-0.0004581486,106.65,55.068752,117.3,left
9578826127688,0.1052842,0.06580263,9.793225,0.0,0.0018325944,-0.0004581486,104.7375,56.812504,116.193756,left
9578818150240,0.11485548,0.06580263,9.798011,0.0,-0.0006108648,-0.0004581486,104.7375,56.812504,116.193756,left
9578813187480,0.11485548,0.06580263,9.798011,0.0,-0.0006108648,-0.0004581486,104.7375,56.812504,116.193756,left
9578836127636,0.11485548,0.06580263,9.798011,0.0,-0.0006108648,-0.0004581486,104.62501,57.393753,115.387505,left
9578846127584,0.11485548,0.07058827,9.783653,0.0,-0.0006108648,-0.0004581486,105.3375,55.631252,115.8,left
9578832261490,0.11485548,0.07058827,9.783653,0.0,-0.0006108648,-0.0004581486,105.3375,55.631252,115.8,left
9578837224251,0.11485548,0.07058827,9.783653,0.0,-0.0006108648,-0.0004581486,105.3375,55.631252,115.8,left
9578856127532,0.11485548,0.07058827,9.783653,0.0,-0.0006108648,-0.0004581486,104.512505,57.80625,115.05,left
9578856297272,0.11964113,0.06580263,9.793225,0.0,0.0006108648,-0.0004581486,104.512505,57.80625,115.05,left
9578851334511,0.11964113,0.06580263,9.793225,0.0,0.0006108648,-0.0004581486,104.4,56.49375,116.175,left
9578866127480,0.11964113,0.06580263,9.793225,0.0,0.0006108648,-0.0004581486,104.4,56.49375,116.175,left
9578876127428,0.11964113,0.06580263,9.793225,0.0,0.0006108648,-0.0004581486,104.418755,56.775,116.15626,left
9578875371282,0.10049855,0.07058827,9.788439,0.0,0.0006108648,-0.0004581486,104.418755,56.775,116.15626,left
9578870408522,0.10049855,0.07058827,9.788439,0.0,0.0006108648,-0.0004581486,104.418755,56.775,116.15626,left
9578886127376,0.10049855,0.07058827,9.788439,0.0,0.0006108648,-0.0004581486,104.850006,56.7,115.78126,left
9578896127324,0.10049855,0.07058827,9.788439,0.0,0.0006108648,-0.0004581486,104.5875,55.537502,115.70625,left
9578889481490,0.1052842,0.05623133,9.788439,0.0,0.0006108648,-0.0004581486,104.5875,55.537502,115.70625,left
9578894444251,0.1052842,0.05623133,9.788439,0.0,0.0006108648,-0.0004581486,104.5875,55.537502,115.70625,left
9578906127272,0.1052842,0.05623133,9.788439,0.0,0.0006108648,-0.0004581486,104.68125,56.23125,117.262505,left
9578916127219,0.1052842,0.05623133,9.788439,0.0,0.0006108648,-0.0004581486,104.925,57.093754,117.3375,left
9578913518261,0.11485548,0.061016977,9.783653,0.0,0.0006108648,-0.0004581486,104.925,57.093754,117.3375,left
9578908555501,0.11485548,0.061016977,9.783653,0.0,0.0006108648,-0.0004581486,104.925,57.093754,117.3375,left
9578926127167,0.11485548,0.061016977,9.783653,0.0,0.0006108648,-0.0004581486,106.33125,56.30625,117.00001,left
9578936127115,0.11485548,0.061016977,9.783653,0.0,0.0006108648,-0.0004581486,106.33125,56.30625,117.00001,left
9578927628522,0.11485548,0.051445685,9.807582,0.0,0.0006108648,-0.0004581486,106.33125,56.30625,117.00001,left
9578932591282,0.11485548,0.051445685,9.807582,0.0,0.0006108648,-0.0004581486,106.33125,56.30625,117.00001,left
9578946127063,0.11485548,0.051445685,9.807582,0.0,0.0006108648,-0.0004581486,103.78126,56.250004,117.00001,left
9578956127011,0.11485548,0.051445685,9.807582,0.0,0.0006108648,-0.0004581486,105.918755,56.5125,117.525,left
9578946702480,0.10049855,0.05623133,9.793225,0.0,0.0006108648,-0.0004581486,105.918755,56.5125,117.525,left
9578951665240,0.10049855,0.05623133,9.793225,0.0,0.0006108648,-0.0004581486,105.918755,56.5125,117.525,left
9578966126959,0.10049855,0.05623133,9.793225,0.0,0.0006108648,-0.0004581486,104.49375,57.525,115.068756,left
9578976126907,0.10049855,0.05623133,9.793225,0.0,0.0006108648,-0.0004581486,104.15626,55.593754,117.1125,left
9578965775501,0.1052842,0.06580263,9.798011,0.0,0.0006108648,-0.0004581486,104.15626,55.593754,117.1125,left
9578970738261,0.1052842,0.06580263,9.798011,0.0,0.0006108648,-0.0004581486,104.15626,55.593754,117.1125,left
9578986126855,0.1052842,0.06580263,9.798011,0.0,0.0006108648,-0.0004581486,104.62501,57.075,116.7375,left
9578989812272,0.1052842,0.051445685,9.798011,0.0,0.0006108648,-0.0004581486,104.26875,58.18125,115.425,left
9578996126803,0.1052842,0.051445685,9.798011,0.0,0.0006108648,-0.0004581486,104.26875,58.18125,115.425,left
9579006126751,0.1052842,0.051445685,9.798011,0.0,0.0006108648,-0.0004581486,104.45625,58.65,114.525,left
9578984849511,0.1052842,0.051445685,9.798011,0.0,0.0006108648,-0.0004581486,104.45625,58.65,114.525,left
9579016126699,0.1052842,0.051445685,9.798011,0.0,0.0006108648,-0.0004581486,102.84376,59.025,114.450005,left
9579003892480,0.11006984,0.07058827,9.793225,0.0,0.0006108648,-0.0004581486,102.84376,59.025,114.450005,left
9579008855240,0.11006984,0.07058827,9.793225,0.0,0.0006108648,-0.0004581486,102.84376,59.025,114.450005,left
9579026126647,0.11006984,0.07058827,9.793225,0.0,0.0006108648,-0.0004581486,104.55,58.256252,114.43125,left
9579027928261,0.10049855,0.061016977,9.793225,0.0,0.0006108648,-0.0004581486,104.45625,58.66875,114.225006,left
9579036126594,0.11006984,0.07058827,9.793225,0.0,0.0006108648,-0.0004581486,104.45625,58.66875,114.225006,left
9579022965501,0.10049855,0.061016977,9.793225,0.0,0.0006108648,-0.0004581486,104.45625,58.66875,114.225006,left
9579046126542,0.10049855,0.061016977,9.793225,0.0,0.0006108648,-0.0004581486,103.55625,58.687504,114.262505,left
9579056126490,0.10049855,0.061016977,9.793225,0.0,0.0006108648,-0.0004581486,104.662506,59.268753,113.90626,left
9579047002272,0.11006984,0.061016977,9.783653,0.0,0.0006108648,-0.0004581486,104.662506,59.268753,113.90626,left
9579042039511,0.11006984,0.061016977,9.783653,0.0,0.0006108648,-0.0004581486,104.662506,59.268753,113.90626,left
9579066126438,0.11006984,0.061016977,9.783653,0.0,0.0006108648,-0.0004581486,103.8,59.250004,115.68751,left
9579076126386,0.11964113,0.061016977,9.798011,0.0,0.0006108648,0.00076358096,104.45625,57.54375,113.475006,left
9579061112480,0.11964113,0.061016977,9.798011,0.0,0.0006108648,0.00076358096,104.45625,57.54375,113.475006,left
9579066075240,0.11964113,0.061016977,9.798011,0.0,0.0006108648,0.00076358096,104.45625,57.54375,113.475006,left
9579086126334,0.11964113,0.061016977,9.798011,0.0,0.0006108648,0.00076358096,104.81251,59.437504,113.475006,left
9579085149251,0.1052842,0.07058827,9.793225,0.0,0.0006108648,-0.0004581486,104.793755,57.562504,115.106255,left
9579080186490,0.1052842,0.07058827,9.793225,0.0,0.0006108648,-0.0004581486,104.793755,57.562504,115.106255,left
9579096126282,0.1052842,0.07058827,9.793225,0.0,0.0006108648,-0.0004581486,104.793755,57.562504,115.106255,left
9579106126230,0.1052842,0.07058827,9.793225,0.0,0.0006108648,-0.0004581486,104.68125,59.568752,113.006256,left
9579104222272,0.11006984,0.05623133,9.788439,0.0,0.0006108648,-0.0004581486,103.293755,57.506252,114.787506,left
9579116126178,0.11006984,0.05623133,9.788439,0.0,0.0006108648,-0.0004581486,103.293755,57.506252,114.787506,left
9579099259511,0.11006984,0.05623133,9.788439,0.0,0.0006108648,-0.0004581486,103.293755,57.506252,114.787506,left
9579126126126,0.11006984,0.05623133,9.788439,0.0,0.0006108648,-0.0004581486,102.61875,57.018753,114.3375,left
9579118332480,0.10049855,0.06580263,9.783653,0.0,0.0006108648,-0.0004581486,104.71876,58.406254,114.28126,left
9579136126074,0.10049855,0.06580263,9.783653,0.0,0.0006108648,-0.0004581486,104.71876,58.406254,114.28126,left
9579123295240,0.10049855,0.06580263,9.783653,0.0,0.0006108648,-0.0004581486,104.71876,58.406254,114.28126,left
9579146126022,0.10049855,0.06580263,9.783653,0.0,0.0006108648,-0.0004581486,103.50001,58.425003,113.26875,left
9579137406490,0.1052842,0.051445685,9.788439,0.0,-0.0006108648,-0.0004581486,103.50001,58.425003,113.26875,left
9579142369251,0.1052842,0.051445685,9.788439,0.0,-0.0006108648,-0.0004581486,103.50001,58.425003,113.26875,left
9579156125969,0.1052842,0.051445685,9.788439,0.0,-0.0006108648,-0.0004581486,105.28126,56.79375,114.075005,left
9579166125917,0.1052842,0.051445685,9.788439,0.0,-0.0006108648,-0.0004581486,105.075005,58.725002,114.881256,left
9579161442272,0.09571291,0.07058827,9.793225,0.0,0.0006108648,-0.0004581486,105.075005,58.725002,114.881256,left
9579156479511,0.09571291,0.07058827,9.793225,0.0,0.0006108648,-0.0004581486,105.075005,58.725002,114.881256,left
9579176125865,0.09571291,0.07058827,9.793225,0.0,0.0006108648,-0.0004581486,102.731255,59.456253,113.231255,left
9579186125813,0.09571291,0.07058827,9.793225,0.0,0.0006108648,-0.0004581486,104.26875,57.075,114.37501,left
9579175553522,0.11964113,0.061016977,9.783653,0.0,0.0006108648,0.00076358096,104.26875,57.075,114.37501,left
9579180516282,0.11964113,0.061016977,9.783653,0.0,0.0006108648,0.00076358096,104.26875,57.075,114.37501,left
9579196125761,0.11964113,0.061016977,9.783653,0.0,0.0006108648,0.00076358096,103.59376,57.54375,114.825005,left
9579199589251,0.11006984,0.07537391,9.798011,0.0,0.0006108648,-0.0004581486,104.62501,57.393753,114.95625,left
9579194626490,0.11006984,0.07537391,9.798011,0.0,0.0006108648,-0.0004581486,104.62501,57.393753,114.95625,left
9579206125709,0.11006984,0.07537391,9.798011,0.0,0.0006108648,0.00076358096,104.62501,57.393753,114.95625,left
9579216125657,0.11006984,0.07537391,9.798011,0.0,0.0006108648,-0.0004581486,103.950005,58.0125,115.537506,left
9579226125605,0.11006984,0.07537391,9.798011,0.0,0.0006108648,-0.0004581486,104.850006,57.80625,117.131256,left
9579218663261,0.11485548,0.07058827,9.798011,0.0,0.0006108648,-0.0004581486,104.850006,57.80625,117.131256,left
9579213700501,0.11485548,0.07058827,9.798011,0.0,0.0006108648,-0.0004581486,104.850006,57.80625,117.131256,left
9579236125553,0.11485548,0.07058827,9.798011,0.0,0.0006108648,-0.0004581486,104.325005,57.3375,115.65,left
9579246125501,0.11485548,0.07058827,9.798011,0.0,0.0006108648,-0.0004581486,104.45625,58.65,114.80625,left
9579232773522,0.1052842,0.06580263,9.793225,0.0,0.0006108648,-0.0004581486,104.45625,58.65,114.80625,left
9579237736282,0.1052842,0.06580263,9.793225,0.0,0.0006108648,-0.0004581486,104.45625,58.65,114.80625,left
9579256125449,0.1052842,0.06580263,9.793225,0.0,0.0006108648,-0.0004581486,104.15626,57.206253,114.76875,left
9579266125397,0.1052842,0.07058827,9.793225,0.0,0.0006108648,-0.0004581486,104.100006,59.30625,115.443756,left
9579251847480,0.1052842,0.07058827,9.793225,0.0,0.0006108648,-0.0004581486,104.100006,59.30625,115.443756,left
9579276125344,0.1052842,0.07058827,9.793225,0.0,0.0006108648,-0.0004581486,103.8,59.5875,113.62501,left
9579256810240,0.1052842,0.07058827,9.793225,0.0,0.0006108648,-0.0004581486,103.8,59.5875,113.62501,left
9579270920501,0.11485548,0.07058827,9.793225,0.0,0.0006108648,-0.0004581486,103.40626,57.412502,113.64375,left
9579286125292,0.11485548,0.07058827,9.793225,0.0,0.0006108648,-0.0004581486,103.40626,57.412502,113.64375,left
9579275883261,0.11485548,0.07058827,9.793225,0.0,0.0006108648,-0.0004581486,103.40626,57.412502,113.64375,left
9579296125240,0.11485548,0.07058827,9.793225,0.0,0.0006108648,-0.0004581486,104.86875,58.275,115.05,left
9579289994511,0.10049855,0.06580263,9.793225,0.0,0.0006108648,-0.0004581486,102.825005,58.55625,115.50001,left
9579306125188,0.10049855,0.06580263,9.793225,0.0,0.0006108648,-0.0004581486,102.825005,58.55625,115.50001,left
9579294957272,0.10049855,0.06580263,9.793225,0.0,0.0006108648,-0.0004581486,104.86875,58.275,115.05,left
9579316125136,0.10049855,0.06580263,9.793225,0.0,0.0006108648,-0.0004581486,105.01875,58.4625,113.5875,left
9579326125084,0.1052842,0.05623133,9.793225,0.0,0.0006108648,-0.0004581486,105.75001,58.256252,114.7125,left
9579314030240,0.1052842,0.05623133,9.793225,0.0,0.0006108648,-0.0004581486,105.75001,58.256252,114.7125,left
9579309067480,0.1052842,0.05623133,9.793225,0.0,0.0006108648,-0.0004581486,105.75001,58.256252,114.7125,left
9579336125032,0.1052842,0.05623133,9.793225,0.0,0.0006108648,-0.0004581486,103.96876,58.312504,114.506256,left
9579328141490,0.1052842,0.07058827,9.793225,0.0,0.0006108648,-0.0004581486,103.96876,58.312504,114.506256,left
9579333104251,0.1052842,0.07058827,9.793225,0.0,0.0006108648,-0.0004581486,103.96876,58.312504,114.506256,left
9579346124980,0.1052842,0.07058827,9.793225,0.0,0.0006108648,-0.0004581486,104.49375,59.100002,114.18751,left
9579356124928,0.1052842,0.07058827,9.793225,0.0,0.0006108648,-0.0004581486,106.14375,58.8375,116.006256,left
9579352177272,0.11006984,0.061016977,9.793225,0.0,0.0006108648,-0.0004581486,106.14375,58.8375,116.006256,left
9579347214511,0.11006984,0.061016977,9.793225,0.0,0.0006108648,-0.0004581486,106.14375,58.8375,116.006256,left
9579366124876,0.11006984,0.061016977,9.793225,0.0,0.0006108648,-0.0004581486,104.850006,58.29375,114.01875,left
9579376124824,0.11006984,0.061016977,9.793225,0.0,0.0006108648,-0.0004581486,103.8375,57.018753,114.9,left
9579386124772,0.1052842,0.05623133,9.802796,0.0,-0.0006108648,-0.0004581486,103.443756,59.268753,113.043755,left
9579371251282,0.1052842,0.05623133,9.802796,0.0,0.0006108648,-0.0004581486,103.8375,57.018753,114.9,left
9579366288522,0.1052842,0.05623133,9.802796,0.0,-0.0006108648,-0.0004581486,103.443756,59.268753,113.043755,left
9579396124719,0.1052842,0.05623133,9.802796,0.0,-0.0006108648,-0.0004581486,104.45625,57.225002,115.106255,left
9579385361490,0.11964113,0.061016977,9.793225,0.0,0.0006108648,-0.0004581486,104.45625,57.225002,115.106255,left
9579390324251,0.11964113,0.061016977,9.793225,0.0,0.0006108648,-0.0004581486,104.45625,57.225002,115.106255,left
9579406124667,0.11964113,0.061016977,9.793225,0.0,0.0006108648,-0.0004581486,103.8,58.143753,114.93751,left
9579416124615,0.11964113,0.061016977,9.793225,0.0,0.0006108648,-0.0004581486,102.43125,57.975002,114.20625,left
9579409367272,0.1052842,0.061016977,9.783653,0.0,0.0006108648,-0.0004581486,102.43125,57.975002,114.20625,left
9579404404511,0.1052842,0.061016977,9.783653,0.0,0.0018325944,-0.0004581486,102.43125,57.975002,114.20625,left
9579426124563,0.1052842,0.061016977,9.783653,0.0,0.0018325944,-0.0004581486,104.5875,58.537502,114.412506,left
9579436124511,0.1052842,0.061016977,9.783653,0.0,0.0018325944,-0.0004581486,103.4625,57.35625,116.71876,left
9579428441282,0.1052842,0.06580263,9.793225,0.0,0.0006108648,-0.0004581486,103.4625,57.35625,116.71876,left
9579423478522,0.1052842,0.06580263,9.793225,0.0,0.0006108648,-0.0004581486,103.4625,57.35625,116.71876,left
9579446124459,0.1052842,0.06580263,9.793225,0.0,0.0006108648,-0.0004581486,103.725006,59.006252,113.68125,left
9579447514251,0.11964113,0.07058827,9.778868,0.0,0.0006108648,-0.0004581486,105.01875,58.143753,115.36875,left
9579456124407,0.11964113,0.07058827,9.778868,0.0,-0.0006108648,-0.0004581486,105.01875,58.143753,115.36875,left
9579442551490,0.11964113,0.07058827,9.778868,0.0,-0.0006108648,-0.0004581486,105.01875,58.143753,115.36875,left
9579466124355,0.11964113,0.07058827,9.778868,0.0,-0.0006108648,-0.0004581486,105.637505,59.79375,115.275,left
9579466588261,0.11964113,0.06580263,9.793225,0.0,-0.0006108648,-0.0004581486,103.55625,58.687504,114.56251,left
9579476124303,0.11964113,0.06580263,9.793225,0.0,-0.0006108648,-0.0004581486,103.55625,58.687504,114.56251,left
9579461625501,0.11964113,0.06580263,9.793225,0.0,0.0006108648,-0.0004581486,103.55625,58.687504,114.56251,left
9579486124251,0.11964113,0.06580263,9.793225,0.0,0.0006108648,-0.0004581486,104.62501,57.7125,113.325005,left
9579485661282,0.11485548,0.061016977,9.788439,0.0,0.0006108648,0.00076358096,103.012505,59.175003,114.3,left
9579480698522,0.11485548,0.061016977,9.788439,0.0,0.0006108648,0.00076358096,103.012505,59.175003,114.3,left
9579496124199,0.11485548,0.061016977,9.788439,0.0,0.0006108648,0.00076358096,103.012505,59.175003,114.3,left
9579506124147,0.11485548,0.061016977,9.788439,0.0,0.0006108648,0.00076358096,104.287506,58.500004,114.65626,left
9579504735240,0.11006984,0.061016977,9.783653,0.0,0.0006108648,0.00076358096,104.287506,58.500004,114.65626,left
9579516124094,0.11006984,0.061016977,9.783653,0.0,0.0006108648,0.00076358096,103.668755,58.275,114.46876,left
9579499772480,0.11006984,0.061016977,9.783653,0.0,0.0006108648,0.00076358096,103.668755,58.275,114.46876,left
9579526124042,0.11006984,0.061016977,9.783653,0.0,0.0006108648,0.00076358096,104.381256,56.49375,115.89375,left
9579523808261,0.11006984,0.06580263,9.788439,0.0,0.0006108648,0.00076358096,104.381256,56.49375,115.89375,left
9579518845501,0.11006984,0.06580263,9.788439,0.0,0.0006108648,-0.0004581486,104.381256,56.49375,115.89375,left
9579536123990,0.11006984,0.06580263,9.788439,0.0,0.0006108648,-0.0004581486,105.168755,59.737503,114.506256,left
9579546123938,0.11006984,0.06580263,9.788439,0.0,0.0006108648,-0.0004581486,104.83125,57.843754,115.51875,left
9579542882272,0.11006984,0.061016977,9.793225,0.0,0.0006108648,-0.0004581486,104.83125,57.843754,115.51875,left
9579537919511,0.11006984,0.061016977,9.793225,0.0,0.0006108648,-0.0004581486,104.83125,57.843754,115.51875,left
9579556123886,0.11006984,0.061016977,9.793225,0.0,0.0006108648,-0.0004581486,103.350006,56.662502,114.731255,left
9579566123834,0.11006984,0.061016977,9.793225,0.0,0.0006108648,-0.0004581486,103.40626,57.393753,114.37501,left
9579556992480,0.11485548,0.061016977,9.793225,0.0,0.0018325944,-0.0004581486,103.40626,57.393753,114.37501,left
9579561955240,0.11485548,0.061016977,9.793225,0.0,0.0018325944,-0.0004581486,103.40626,57.393753,114.37501,left
9579576123782,0.11485548,0.061016977,9.793225,0.0,0.0018325944,-0.0004581486,102.18751,57.093754,114.412506,left
9579586123730,0.11485548,0.061016977,9.793225,0.0,0.0018325944,-0.0004581486,103.78126,59.287502,114.37501,left
9579576066490,0.11964113,0.05623133,9.802796,0.0,0.0006108648,-0.0004581486,103.78126,59.287502,114.37501,left
9579581029251,0.11964113,0.05623133,9.802796,0.0,0.0006108648,-0.0004581486,103.78126,59.287502,114.37501,left
9579596123678,0.11964113,0.05623133,9.802796,0.0,0.0006108648,-0.0004581486,103.350006,58.237503,114.15,left
9579606123626,0.11964113,0.05623133,9.802796,0.0,0.0006108648,-0.0004581486,103.256256,57.54375,113.475006,left
9579600102272,0.1052842,0.06580263,9.788439,0.0,0.0006108648,-0.0004581486,103.256256,57.54375,113.475006,left
9579616123574,0.1052842,0.06580263,9.788439,0.0,0.0006108648,-0.0004581486,104.4,58.068752,114.8625,left
9579595139511,0.1052842,0.06580263,9.788439,0.0,0.0006108648,-0.0004581486,104.4,58.068752,114.8625,left
9579626123522,0.09571291,0.07058827,9.788439,0.0,0.0006108648,-0.0004581486,104.193756,56.362503,114.7125,left
9579619176282,0.09571291,0.07058827,9.788439,0.0,0.0006108648,-0.0004581486,104.193756,56.362503,114.7125,left
9579636123469,0.09571291,0.07058827,9.788439,0.0,-0.0006108648,-0.0004581486,104.9625,59.30625,113.943756,left
9579614213522,0.09571291,0.07058827,9.788439,0.0,-0.0006108648,-0.0004581486,104.9625,59.30625,113.943756,left
9579646123417,0.09571291,0.07058827,9.788439,0.0,-0.0006108648,-0.0004581486,106.668755,58.050003,116.71876,left
9579638249251,0.10049855,0.061016977,9.793225,0.0,0.0018325944,-0.0004581486,106.668755,58.050003,116.71876,left
9579633286490,0.10049855,0.061016977,9.793225,0.0,0.0018325944,-0.0004581486,106.668755,58.050003,116.71876,left
9579656123365,0.10049855,0.061016977,9.793225,0.0,0.0018325944,-0.0004581486,104.26875,58.18125,115.70625,left
9579666123313,0.11485548,0.061016977,9.778868,0.0,0.0006108648,-0.0004581486,104.137505,57.206253,114.4875,left
9579657323261,0.11485548,0.061016977,9.778868,0.0,0.0006108648,-0.0004581486,104.137505,57.206253,114.4875,left
9579652360501,0.11485548,0.061016977,9.778868,0.0,0.0006108648,-0.0004581486,104.137505,57.206253,114.4875,left
9579676123261,0.11485548,0.061016977,9.778868,0.0,0.0006108648,-0.0004581486,104.137505,57.206253,114.4875,left
9579686123209,0.11485548,0.061016977,9.778868,0.0,0.0006108648,-0.0004581486,104.43751,57.24375,114.506256,left
9579671433522,0.11485548,0.061016977,9.778868,0.0,0.0006108648,-0.0004581486,104.43751,57.24375,114.506256,left
9579676396282,0.11485548,0.061016977,9.783653,0.0,0.0006108648,-0.0004581486,104.43751,57.24375,114.506256,left
9579696123157,0.11485548,0.061016977,9.783653,0.0,0.0006108648,-0.0004581486,104.287506,58.162502,116.7375,left
9579695470240,0.1052842,0.06580263,9.783653,0.0,-0.0006108648,-0.0004581486,104.287506,58.162502,116.7375,left
9579690507480,0.1052842,0.06580263,9.783653,0.0,-0.0006108648,-0.0004581486,104.287506,58.162502,116.7375,left
9579706123105,0.1052842,0.06580263,9.783653,0.0,-0.0006108648,-0.0004581486,103.4625,57.675003,114.93751,left
9579716123053,0.1052842,0.06580263,9.783653,0.0,-0.0006108648,-0.0004581486,102.731255,59.456253,113.231255,left
9579726123001,0.11964113,0.051445685,9.788439,0.0,0.0006108648,-0.0004581486,102.731255,59.456253,113.231255,left
9579709580501,0.11964113,0.051445685,9.788439,0.0,0.0006108648,-0.0004581486,102.731255,59.456253,113.231255,left
9579714543261,0.11964113,0.051445685,9.788439,0.0,0.0006108648,-0.0004581486,102.731255,59.456253,113.231255,left
9579736122949,0.11964113,0.051445685,9.788439,0.0,0.0006108648,-0.0004581486,104.3625,56.86875,111.787506,left
9579733617272,0.11485548,0.061016977,9.788439,0.0,0.0006108648,0.00076358096,104.3625,56.86875,111.787506,left
9579728654511,0.11485548,0.061016977,9.788439,0.0,0.0006108648,0.00076358096,104.3625,56.86875,111.787506,left
9579746122897,0.11485548,0.061016977,9.788439,0.0,0.0006108648,0.00076358096,104.175,57.487503,115.05,left
9579756122844,0.11485548,0.061016977,9.788439,0.0,0.0006108648,0.00076358096,103.950005,58.0125,115.537506,left
9579752690240,0.11485548,0.061016977,9.793225,0.0,0.0006108648,0.00076358096,103.950005,58.0125,115.537506,left
9579747727480,0.11485548,0.061016977,9.793225,0.0,0.0006108648,0.00076358096,103.950005,58.0125,115.537506,left
9579766122792,0.11485548,0.061016977,9.793225,0.0,0.0006108648,0.00076358096,105.65626,57.225002,115.818756,left
9579776122740,0.11485548,0.061016977,9.793225,0.0,0.0006108648,0.00076358096,104.3625,59.23125,113.86875,left
9579771763261,0.11006984,0.061016977,9.798011,0.0,-0.0006108648,-0.0004581486,104.3625,59.23125,113.86875,left
9579786122688,0.11006984,0.061016977,9.798011,0.0,-0.0006108648,-0.0004581486,105.637505,58.687504,113.775,left
9579766800501,0.11006984,0.061016977,9.798011,0.0,-0.0006108648,-0.0004581486,105.637505,58.687504,113.775,left
9579796122636,0.11006984,0.061016977,9.798011,0.0,-0.0006108648,-0.0004581486,105.637505,58.687504,113.775,left
9579785874511,0.11485548,0.061016977,9.793225,0.0,0.0006108648,-0.0004581486,105.58125,59.2125,115.6125,left
9579790837272,0.11485548,0.061016977,9.793225,0.0,0.0006108648,-0.0004581486,105.58125,59.2125,115.6125,left
9579806122584,0.11485548,0.061016977,9.793225,0.0,0.0006108648,-0.0004581486,105.58125,59.2125,115.6125,left
9579816122532,0.11485548,0.061016977,9.793225,0.0,0.0006108648,-0.0004581486,105.24375,57.937504,113.53126,left
9579809880240,0.1052842,0.06580263,9.788439,0.0,0.0006108648,-0.0004581486,105.24375,57.937504,113.53126,left
9579804917480,0.1052842,0.06580263,9.788439,0.0,0.0006108648,-0.0004581486,105.24375,57.937504,113.53126,left
9579826122480,0.1052842,0.06580263,9.788439,0.0,0.0006108648,-0.0004581486,102.93751,57.037502,114.93751,left
9579823990501,0.11485548,0.061016977,9.793225,0.0,0.0006108648,0.00076358096,102.93751,57.05625,114.356255,left
9579836122428,0.11485548,0.061016977,9.793225,0.0,0.0006108648,0.00076358096,102.93751,57.05625,114.356255,left
9579828953261,0.11485548,0.061016977,9.793225,0.0,0.0006108648,0.00076358096,102.93751,57.05625,114.356255,left
9579846122376,0.11485548,0.061016977,9.793225,0.0,0.0006108648,0.00076358096,104.49375,59.100002,114.18751,left
9579856122324,0.1052842,0.061016977,9.788439,0.0,-0.0006108648,-0.0004581486,106.18125,56.775,114.318756,left
9579848027272,0.1052842,0.061016977,9.788439,0.0,-0.0006108648,-0.0004581486,106.18125,56.775,114.318756,left
9579843064511,0.1052842,0.061016977,9.788439,0.0,-0.0006108648,-0.0004581486,106.18125,56.775,114.318756,left
9579866122272,0.1052842,0.061016977,9.788439,0.0,-0.0006108648,-0.0004581486,104.137505,57.206253,114.4875,left
9579867100240,0.11006984,0.061016977,9.798011,0.0,-0.0006108648,-0.0004581486,103.350006,58.256252,113.700005,left
9579876122219,0.11006984,0.061016977,9.798011,0.0,-0.0006108648,-0.0004581486,103.350006,58.256252,113.700005,left
9579862137480,0.11006984,0.061016977,9.798011,0.0,0.0006108648,-0.0004581486,103.68751,58.256252,115.481255,left
9579886122167,0.11006984,0.061016977,9.798011,0.0,0.0006108648,-0.0004581486,103.68751,58.256252,115.481255,left
9579886174251,0.11485548,0.061016977,9.793225,0.0,0.0006108648,-0.0004581486,103.68751,58.256252,115.481255,left
9579896122115,0.11485548,0.061016977,9.793225,-0.0012217296,0.0018325944,-0.0004581486,103.03126,58.068752,113.83125,left
9579906122063,0.11485548,0.061016977,9.793225,-0.0012217296,0.0018325944,-0.0004581486,103.03126,58.068752,113.83125,left
9579881211490,0.11485548,0.061016977,9.793225,-0.0012217296,0.0018325944,-0.0004581486,103.03126,58.068752,113.83125,left
9579905247272,0.11006984,0.061016977,9.793225,-0.0012217296,0.0006108648,-0.0004581486,104.418755,58.050003,116.606255,left
9579900284511,0.11006984,0.061016977,9.793225,-0.0012217296,0.0006108648,-0.0004581486,104.418755,58.050003,116.606255,left
9579916122011,0.11006984,0.061016977,9.793225,-0.0012217296,0.0006108648,-0.0004581486,104.418755,58.050003,116.606255,left
9579926121959,0.11006984,0.061016977,9.793225,-0.0012217296,0.0006108648,-0.0004581486,104.4,56.812504,114.543755,left
9579924321282,0.11485548,0.061016977,9.788439,-0.0012217296,0.0006108648,-0.0004581486,104.4,56.812504,114.543755,left
9579919358522,0.11485548,0.061016977,9.788439,0.0,-0.0006108648,0.00076358096,104.418755,56.79375,115.575005,left
9579936121907,0.11485548,0.061016977,9.788439,0.0,-0.0006108648,0.00076358096,104.418755,56.79375,115.575005,left
9579946121855,0.11485548,0.061016977,9.788439,0.0,-0.0006108648,0.00076358096,103.668755,58.275,114.46876,left
9579943394251,0.11485548,0.061016977,9.778868,0.0,-0.0006108648,0.00076358096,103.668755,58.275,114.46876,left
9579938431490,0.11485548,0.061016977,9.778868,0.0,0.0006108648,0.00076358096,103.668755,58.275,114.46876,left
9579956121803,0.11485548,0.061016977,9.778868,0.0,0.0006108648,0.00076358096,104.287506,58.500004,114.37501,left
9579966121751,0.11485548,0.061016977,9.778868,0.0,0.0006108648,0.00076358096,103.74375,57.73125,113.662506,left
9579962468261,0.11006984,0.061016977,9.783653,0.0,0.0006108648,-0.0004581486,103.74375,57.73125,113.662506,left
9579957505501,0.11006984,0.061016977,9.783653,0.0,0.0006108648,-0.0004581486,103.74375,57.73125,113.662506,left
9579976121699,0.11006984,0.061016977,9.783653,0.0,0.0006108648,-0.0004581486,104.15626,57.187504,115.50001,left
9579986121647,0.11006984,0.061016977,9.783653,0.0,0.0006108648,-0.0004581486,103.05,59.1375,116.06251,left
9579981541282,0.11964113,0.07058827,9.788439,0.0,-0.0006108648,-0.0004581486,103.05,59.1375,116.06251,left
9579976578522,0.11964113,0.07058827,9.788439,0.0,-0.0006108648,-0.0004581486,103.05,59.1375,116.06251,left
9579996121594,0.11964113,0.07058827,9.788439,0.0,-0.0006108648,-0.0004581486,103.762505,56.287502,115.68751,left
9580006121542,0.11964113,0.07058827,9.788439,0.0,-0.0006108648,-0.0004581486,105.75001,56.68125,116.025,left
9580000615240,0.1052842,0.061016977,9.793225,0.0,0.0006108648,-0.0004581486,105.75001,56.68125,116.025,left
9579995652480,0.1052842,0.061016977,9.793225,0.0,0.0006108648,-0.0004581486,105.75001,56.68125,116.025,left
9580016121490,0.1052842,0.061016977,9.793225,0.0,0.0006108648,-0.0004581486,105.881256,56.550003,115.912506,left
9580026121438,0.1052842,0.061016977,9.793225,0.0,0.0006108648,-0.0004581486,103.481255,56.23125,116.4,left
9580019688261,0.10049855,0.061016977,9.788439,0.0,0.0006108648,-0.0004581486,103.481255,56.23125,116.4,left
9580014725501,0.10049855,0.061016977,9.788439,0.0,0.0006108648,-0.0004581486,103.668755,56.68125,116.512505,left
9580036121386,0.10049855,0.061016977,9.788439,0.0,0.0006108648,-0.0004581486,103.668755,56.68125,116.512505,left
9580046121334,0.10049855,0.061016977,9.788439,0.0,0.0006108648,-0.0004581486,104.137505,57.206253,114.4875,left
9580038762272,0.11006984,0.061016977,9.788439,0.0,0.0018325944,0.00076358096,104.137505,57.206253,114.4875,left
9580033799511,0.11006984,0.061016977,9.788439,0.0,0.0018325944,0.00076358096,104.137505,57.206253,114.4875,left
9580056121282,0.11006984,0.061016977,9.788439,0.0,0.0018325944,0.00076358096,103.59376,57.562504,114.525,left
9580066121230,0.11006984,0.061016977,9.788439,0.0,0.0018325944,0.00076358096,105.600006,54.9,118.21876,left
9580057835240,0.11964113,0.06580263,9.788439,0.0,0.0006108648,-0.0004581486,105.600006,54.9,118.21876,left
9580052872480,0.11964113,0.06580263,9.788439,0.0,0.0006108648,-0.0004581486,105.600006,54.9,118.21876,left
9580076121178,0.11964113,0.06580263,9.788439,0.0,0.0006108648,-0.0004581486,104.2125,56.025,117.37501,left
9580076909251,0.1052842,0.05623133,9.788439,0.0,-0.0006108648,0.00076358096,104.53126,56.362503,116.49375,left
9580071946490,0.1052842,0.05623133,9.788439,0.0,-0.0006108648,0.00076358096,104.53126,56.362503,116.49375,left
9580086121126,0.1052842,0.05623133,9.788439,0.0,-0.0006108648,0.00076358096,104.53126,56.362503,116.49375,left
9580096121074,0.1052842,0.05623133,9.788439,0.0,-0.0006108648,0.00076358096,105.24375,56.193752,115.14375,left
9580106121022,0.11006984,0.06580263,9.778868,0.0,-0.0006108648,-0.0004581486,103.14375,56.2125,115.33125,left
9580091019511,0.11006984,0.06580263,9.778868,0.0,-0.0006108648,-0.0004581486,103.14375,56.2125,115.33125,left
9580116120969,0.11006984,0.06580263,9.778868,0.0,-0.0006108648,-0.0004581486,103.65,58.29375,113.7375,left
9580095982272,0.11006984,0.06580263,9.778868,0.0,-0.0006108648,-0.0004581486,103.14375,56.2125,115.33125,left
9580115056282,0.11006984,0.07058827,9.788439,0.0,0.0018325944,-0.0004581486,103.65,58.29375,113.7375,left
9580110093522,0.11006984,0.07058827,9.788439,0.0,0.0018325944,-0.0004581486,103.05,58.050003,114.56251,left
9580126120917,0.11006984,0.07058827,9.788439,0.0,0.0018325944,-0.0004581486,103.05,58.050003,114.56251,left
9580136120865,0.11006984,0.07058827,9.788439,0.0,0.0018325944,-0.0004581486,103.93125,58.031254,114.225006,left
9580129166490,0.10049855,0.061016977,9.788439,0.0,0.0006108648,0.00076358096,104.418755,58.050003,115.89375,left
9580146120813,0.10049855,0.061016977,9.788439,0.0,0.0006108648,0.00076358096,104.418755,58.050003,115.89375,left
9580134129251,0.10049855,0.061016977,9.788439,0.0,0.0006108648,0.00076358096,103.93125,58.031254,114.225006,left
9580156120761,0.10049855,0.061016977,9.788439,0.0,0.0006108648,0.00076358096,104.793755,57.562504,115.106255,left
9580153203261,0.11485548,0.061016977,9.788439,0.0,0.0006108648,0.00076358096,104.793755,57.562504,115.106255,left
9580166120709,0.11485548,0.061016977,9.788439,0.0,-0.0006108648,-0.0004581486,104.943756,58.8375,115.425,left
9580148240501,0.11485548,0.061016977,9.788439,0.0,-0.0006108648,-0.0004581486,104.943756,58.8375,115.425,left
9580176120657,0.11485548,0.061016977,9.788439,0.0,-0.0006108648,-0.0004581486,102.450005,56.850002,114.18751,left
9580172276282,0.11964113,0.07058827,9.788439,0.0,0.0006108648,-0.0004581486,102.450005,56.850002,114.18751,left
9580167313522,0.11964113,0.07058827,9.788439,0.0,0.0006108648,-0.0004581486,102.450005,56.850002,114.18751,left
9580186120605,0.11964113,0.07058827,9.788439,0.0,0.0006108648,-0.0004581486,105.525,58.800003,114.637505,left
9580191350240,0.11485548,0.06580263,9.798011,0.0,0.0018325944,-0.0004581486,103.8375,57.000004,115.631256,left
9580186387480,0.11485548,0.06580263,9.798011,0.0,0.0018325944,-0.0004581486,104.606255,58.518753,114.99375,left
9580206120501,0.11485548,0.06580263,9.798011,0.0,0.0018325944,-0.0004581486,104.606255,58.518753,114.99375,left
9580196120553,0.11485548,0.06580263,9.798011,0.0,0.0006108648,-0.0004581486,103.8375,57.000004,115.631256,left
9580216120449,0.1052842,0.06580263,9.802796,0.0,0.0006108648,-0.0004581486,105.131256,56.60625,115.2375,left
9580210393261,0.1052842,0.06580263,9.802796,0.0,0.0006108648,-0.0004581486,102.918755,58.48125,113.34376,left
9580226120397,0.1052842,0.06580263,9.788439,0.0,0.0006108648,-0.0004581486,106.068756,55.443752,115.89375,left
9580229466282,0.1052842,0.06580263,9.788439,0.0,0.0006108648,-0.0004581486,106.631256,56.343754,116.7375,left
9580236120344,0.1052842,0.06580263,9.788439,0.0,0.0006108648,-0.0004581486,106.631256,56.343754,116.7375,left
9580246120292,0.1052842,0.06580263,9.783653,0.0,0.0006108648,-0.0004581486,103.6125,55.612503,119.231255,left
9580248540240,0.1052842,0.06580263,9.783653,0.0,0.0006108648,-0.0004581486,103.6125,55.612503,119.231255,left
9580224503522,0.1052842,0.06580263,9.783653,0.0,0.0006108648,-0.0004581486,103.6125,55.612503,119.231255,left
9580266120188,0.1052842,0.06580263,9.783653,0.0,0.0006108648,-0.0004581486,104.756256,56.79375,117.637505,left
9580243577480,0.1052842,0.06580263,9.783653,0.0,0.0006108648,-0.0004581486,104.756256,56.79375,117.637505,left
9580276120136,0.1052842,0.06580263,9.783653,0.0,0.0006108648,-0.0004581486,104.287506,55.500004,115.96876,left
9580256120240,0.1052842,0.06580263,9.783653,0.0,0.0006108648,-0.0004581486,103.6125,55.612503,119.231255,left
9580205430501,0.1052842,0.08015956,9.798011,0.0,0.0018325944,-0.0004581486,104.287506,55.500004,115.96876,left
9580267613261,0.1052842,0.08015956,9.798011,0.0,0.0018325944,-0.0004581486,104.15626,55.593754,116.83125,left
9580262650501,0.1052842,0.08015956,9.798011,0.0,0.0018325944,-0.0004581486,105.918755,56.831253,116.175,left
9580286120084,0.11006984,0.07058827,9.788439,0.0,0.0018325944,-0.0004581486,105.918755,56.831253,116.175,left
9580286687272,0.11006984,0.07058827,9.788439,0.0,0.0006108648,-0.0004581486,105.918755,56.831253,116.175,left
9580281724511,0.11006984,0.07058827,9.788439,0.0,0.0006108648,-0.0004581486,105.918755,56.831253,116.175,left
9580296120032,0.1052842,0.08015956,9.798011,0.0,0.0018325944,-0.0004581486,105.918755,56.831253,116.175,left
9580306119980,0.11006984,0.07058827,9.788439,0.0,0.0006108648,-0.0004581486,103.87501,54.112503,118.106255,left
9580305760240,0.11006984,0.06580263,9.798011,0.0,0.0006108648,-0.0004581486,103.87501,54.112503,118.106255,left
9580300797480,0.11006984,0.06580263,9.798011,0.0,0.0006108648,-0.0004581486,103.87501,54.112503,118.106255,left
9580316119928,0.11006984,0.06580263,9.798011,0.0,0.0006108648,-0.0004581486,104.287506,53.568752,120.09376,left
9580326119876,0.11006984,0.06580263,9.798011,0.0,0.0006108648,-0.0004581486,105.787506,56.643753,117.787506,left
9580319871490,0.11006984,0.06580263,9.798011,0.0,0.0006108648,-0.0004581486,105.787506,56.643753,117.787506,left
9580336119824,0.11006984,0.06580263,9.798011,0.0,0.0006108648,-0.0004581486,105.00001,54.80625,118.89375,left
9580324834251,0.11964113,0.061016977,9.788439,0.0,0.0006108648,-0.0004581486,105.00001,54.80625,118.89375,left
9580346119772,0.11964113,0.061016977,9.788439,0.0,0.0006108648,-0.0004581486,107.2125,54.693752,117.84376,left
9580343907272,0.10049855,0.07058827,9.793225,0.0,0.0006108648,-0.0004581486,107.2125,54.693752,117.84376,left
9580338944511,0.10049855,0.07058827,9.793225,0.0,0.0018325944,-0.0004581486,107.2125,54.693752,117.84376,left
9580356119719,0.10049855,0.07058827,9.793225,0.0,0.0018325944,-0.0004581486,105.318756,53.41875,119.793755,left
9580366119667,0.10049855,0.07058827,9.793225,0.0,0.0018325944,-0.0004581486,106.65,57.750004,117.037506,left
9580362981282,0.11006984,0.06580263,9.788439,0.0,0.0006108648,-0.0004581486,106.65,57.750004,117.037506,left
9580358018522,0.11006984,0.06580263,9.788439,0.0,0.0006108648,-0.0004581486,106.65,57.750004,117.037506,left
9580376119615,0.11006984,0.06580263,9.788439,0.0,0.0006108648,-0.0004581486,104.5875,58.218754,116.025,left
9580386119563,0.11006984,0.06580263,9.788439,0.0,0.0006108648,-0.0004581486,106.012505,59.456253,113.45625,left
9580382054251,0.1052842,0.06580263,9.788439,0.0,-0.0006108648,-0.0004581486,106.012505,59.456253,113.45625,left
9580377091490,0.1052842,0.06580263,9.788439,0.0,-0.0006108648,-0.0004581486,106.012505,59.456253,113.45625,left
9580396119511,0.1052842,0.06580263,9.788439,0.0,-0.0006108648,-0.0004581486,105.15,59.456253,114.80625,left
9580406119459,0.1052842,0.06580263,9.788439,0.0,-0.0006108648,-0.0004581486,105.037506,58.425003,115.631256,left
9580396165501,0.09571291,0.05623133,9.788439,0.0,0.0018325944,0.00076358096,105.037506,58.425003,115.631256,left
9580401128261,0.09571291,0.05623133,9.788439,0.0,0.0018325944,0.00076358096,105.037506,58.425003,115.631256,left
9580416119407,0.09571291,0.05623133,9.788439,0.0,0.0018325944,0.00076358096,105.450005,58.218754,114.39375,left
9580426119355,0.09571291,0.05623133,9.788439,0.0,0.0018325944,0.00076358096,105.637505,57.2625,114.506256,left
9580420201282,0.11485548,0.061016977,9.793225,0.0,0.0018325944,0.00076358096,105.637505,57.2625,114.506256,left
9580415238522,0.11485548,0.061016977,9.793225,0.0,0.0018325944,0.00076358096,102.881256,57.862503,115.443756,left
9580436119303,0.11485548,0.061016977,9.793225,0.0,0.0018325944,0.00076358096,102.881256,57.862503,115.443756,left
9580446119251,0.11485548,0.061016977,9.793225,0.0,0.0018325944,0.00076358096,104.568756,58.55625,113.381256,left
9580439274251,0.11485548,0.07537391,9.788439,0.0,0.0018325944,0.00076358096,104.568756,58.55625,113.381256,left
9580434311490,0.11485548,0.07537391,9.788439,0.0,0.0006108648,0.00076358096,104.568756,58.55625,113.381256,left
9580456119199,0.11485548,0.07537391,9.788439,0.0,0.0006108648,0.00076358096,105.450005,58.218754,114.975006,left
9580466119147,0.11485548,0.07537391,9.788439,0.0,0.0006108648,0.00076358096,105.675,55.968754,115.8,left
9580458348261,0.11485548,0.05623133,9.788439,0.0,0.0006108648,0.00076358096,105.675,55.968754,115.8,left
9580453385501,0.11485548,0.05623133,9.788439,0.0,-0.0006108648,-0.0004581486,105.675,55.968754,115.8,left
9580476119094,0.11485548,0.05623133,9.788439,0.0,-0.0006108648,-0.0004581486,103.68751,57.15,114.00001,left
9580486119042,0.11485548,0.06580263,9.783653,0.0,-0.0006108648,-0.0004581486,105.037506,58.425003,115.33125,left
9580477421282,0.11485548,0.06580263,9.783653,0.0,0.0006108648,-0.0004581486,105.037506,58.425003,115.33125,left
9580472458522,0.11485548,0.06580263,9.783653,0.0,0.0006108648,-0.0004581486,105.037506,58.425003,115.33125,left
9580496118990,0.11485548,0.06580263,9.783653,0.0,0.0006108648,-0.0004581486,103.950005,58.331253,113.475006,left
9580496495240,0.1052842,0.07058827,9.788439,0.0,0.0006108648,-0.0004581486,105.262505,57.600002,115.59376,left
9580506118938,0.1052842,0.07058827,9.788439,0.0,0.0006108648,-0.0004581486,105.262505,57.600002,115.59376,left
9580491532480,0.1052842,0.07058827,9.788439,0.0,0.0006108648,-0.0004581486,105.262505,57.600002,115.59376,left
9580516118886,0.1052842,0.07058827,9.788439,0.0,0.0006108648,-0.0004581486,104.43751,55.65,115.8375,left
9580526118834,0.11006984,0.06580263,9.783653,0.0,0.0006108648,-0.0004581486,106.256256,57.018753,116.34376,left
9580510605501,0.11006984,0.06580263,9.783653,0.0,0.0006108648,-0.0004581486,106.256256,57.018753,116.34376,left
9580515568261,0.11006984,0.06580263,9.783653,0.0,0.0006108648,-0.0004581486,106.256256,57.018753,116.34376,left
9580536118782,0.11006984,0.06580263,9.783653,0.0,0.0006108648,-0.0004581486,103.912506,58.050003,113.512505,left
9580534642272,0.1052842,0.05623133,9.778868,0.0,0.0006108648,-0.0004581486,104.231255,56.325,116.475006,left
9580546118730,0.1052842,0.05623133,9.778868,0.0,0.0006108648,-0.0004581486,104.231255,56.325,116.475006,left
9580529679511,0.1052842,0.05623133,9.778868,0.0,0.0006108648,-0.0004581486,104.231255,56.325,116.475006,left
9580556118678,0.1052842,0.05623133,9.778868,0.0,0.0006108648,-0.0004581486,103.96876,58.312504,114.506256,left
9580553715240,0.124426775,0.05623133,9.788439,0.0,0.0018325944,-0.0004581486,104.49375,59.081253,114.4875,left
9580548752480,0.124426775,0.05623133,9.788439,0.0,0.0018325944,-0.0004581486,104.49375,59.081253,114.4875,left
9580566118626,0.124426775,0.05623133,9.788439,0.0,0.0018325944,-0.0004581486,104.49375,59.081253,114.4875,left
9580576118574,0.124426775,0.05623133,9.788439,0.0,0.0018325944,-0.0004581486,106.14375,58.8375,116.006256,left
9580572789251,0.1052842,0.061016977,9.793225,0.0,0.0006108648,-0.0004581486,104.3625,56.2125,116.2125,left
9580586118522,0.1052842,0.061016977,9.793225,0.0,0.0006108648,-0.0004581486,104.3625,56.2125,116.2125,left
9580567826490,0.1052842,0.061016977,9.793225,0.0,0.0006108648,-0.0004581486,104.3625,56.2125,116.2125,left
9580596118469,0.1052842,0.061016977,9.793225,0.0,0.0006108648,-0.0004581486,104.68125,56.550003,115.200005,left
9580586899511,0.10049855,0.061016977,9.783653,0.0,0.0006108648,0.00076358096,104.68125,56.550003,115.200005,left
9580591862272,0.10049855,0.061016977,9.783653,0.0,0.0006108648,0.00076358096,104.68125,56.550003,115.200005,left
9580606118417,0.10049855,0.061016977,9.783653,0.0,0.0006108648,0.00076358096,104.662506,57.656254,115.950005,left
9580616118365,0.10049855,0.061016977,9.783653,0.0,0.0006108648,0.00076358096,104.53126,56.362503,116.793755,left
9580605942480,0.11485548,0.07058827,9.783653,0.0,0.0006108648,0.00076358096,104.53126,56.362503,116.793755,left
9580610905240,0.11485548,0.07058827,9.783653,0.0,0.0006108648,0.00076358096,104.53126,56.362503,116.793755,left
9580626118313,0.11485548,0.07058827,9.783653,0.0,0.0006108648,0.00076358096,104.06251,59.325,113.68125,left
9580625016490,0.11485548,0.06580263,9.778868,0.0,0.0006108648,-0.0004581486,103.65,56.7,115.50001,left
9580636118261,0.11485548,0.07058827,9.783653,0.0,0.0006108648,0.00076358096,103.65,56.7,115.50001,left
9580629979251,0.11485548,0.06580263,9.778868,0.0,0.0006108648,-0.0004581486,103.65,56.7,115.50001,left
9580646118209,0.11485548,0.06580263,9.778868,0.0,0.0006108648,-0.0004581486,104.4,56.812504,114.1125,left
9580656118157,0.11485548,0.06580263,9.778868,0.0,0.0006108648,-0.0004581486,104.568756,58.237503,114.7125,left
9580649052272,0.1052842,0.07537391,9.788439,0.0,0.0006108648,-0.0004581486,104.568756,58.237503,114.7125,left
9580644089511,0.1052842,0.07537391,9.788439,0.0,0.0006108648,-0.0004581486,104.568756,58.237503,114.7125,left
9580666118105,0.1052842,0.07537391,9.788439,0.0,0.0006108648,-0.0004581486,103.40626,57.393753,114.37501,left
9580668126282,0.11485548,0.06580263,9.783653,0.0,0.0006108648,-0.0004581486,104.850006,56.718754,115.05,left
9580663163522,0.11485548,0.06580263,9.783653,0.0,0.0006108648,-0.0004581486,104.850006,56.718754,115.05,left
9580676118053,0.11485548,0.06580263,9.783653,0.0,0.0006108648,-0.0004581486,104.850006,56.718754,115.05,left
9580686118001,0.11485548,0.06580263,9.783653,0.0,0.0006108648,-0.0004581486,104.381256,56.831253,113.83125,left
9580687199251,0.11485548,0.061016977,9.783653,0.0,0.0006108648,-0.0004581486,102.7125,56.437504,114.825005,left
9580682236490,0.11485548,0.061016977,9.783653,0.0,0.0006108648,-0.0004581486,102.7125,56.437504,114.825005,left
9580696117949,0.11485548,0.061016977,9.783653,0.0,0.0006108648,-0.0004581486,102.7125,56.437504,114.825005,left
9580706117897,0.11485548,0.061016977,9.783653,0.0,0.0006108648,-0.0004581486,104.49375,59.100002,114.18751,left
9580706273261,0.1052842,0.06580263,9.783653,0.0,0.0006108648,-0.0004581486,104.49375,59.100002,114.18751,left
9580716117844,0.1052842,0.06580263,9.783653,0.0,0.0006108648,-0.0004581486,104.7375,58.0875,116.64375,left
9580701310501,0.1052842,0.06580263,9.783653,0.0,0.0006108648,-0.0004581486,104.49375,59.100002,114.18751,left
9580726117792,0.1052842,0.06580263,9.783653,0.0,0.0006108648,-0.0004581486,105.05625,58.74375,113.850006,left
9580725346282,0.1052842,0.05623133,9.783653,-0.0012217296,0.0006108648,0.00076358096,105.05625,58.74375,113.850006,left
9580736117740,0.1052842,0.05623133,9.783653,-0.0012217296,0.0006108648,0.00076358096,103.14375,59.062504,114.4875,left
9580720383522,0.1052842,0.05623133,9.783653,-0.0012217296,0.0006108648,0.00076358096,105.05625,58.74375,113.850006,left
9580746117688,0.1052842,0.05623133,9.783653,-0.0012217296,0.0006108648,0.00076358096,105.18751,59.718754,115.21876,left
9580739457480,0.1052842,0.05623133,9.783653,0.0,0.0006108648,-0.0004581486,103.537506,57.281254,113.83125,left
9580756117636,0.1052842,0.05623133,9.783653,0.0,0.0006108648,-0.0004581486,103.537506,57.281254,113.83125,left
9580744420240,0.11485548,0.061016977,9.793225,0.0,0.0006108648,-0.0004581486,103.537506,57.281254,113.83125,left
9580766117584,0.11485548,0.061016977,9.793225,0.0,0.0006108648,-0.0004581486,103.575005,57.562504,113.793755,left
9580758530501,0.10049855,0.05623133,9.783653,0.0,0.0006108648,-0.0004581486,103.425,57.05625,116.45625,left
9580776117532,0.10049855,0.05623133,9.783653,0.0,0.0006108648,-0.0004581486,103.425,57.05625,116.45625,left
9580763493261,0.10049855,0.05623133,9.783653,0.0,0.0006108648,-0.0004581486,103.425,57.05625,116.45625,left
9580786117480,0.10049855,0.05623133,9.783653,0.0,0.0006108648,-0.0004581486,105.225006,57.656254,113.55,left
9580777604511,0.124426775,0.046660043,9.798011,0.0,0.0006108648,-0.0004581486,105.225006,57.656254,113.55,left
9580782567272,0.124426775,0.046660043,9.798011,0.0,0.0006108648,-0.0004581486,105.225006,57.656254,113.55,left
9580796117428,0.124426775,0.046660043,9.798011,0.0,0.0006108648,-0.0004581486,103.03126,59.475002,113.55,left
9580806117376,0.124426775,0.046660043,9.798011,0.0,0.0006108648,-0.0004581486,104.26875,57.093754,113.925,left
9580796677480,0.11006984,0.061016977,9.802796,0.0,0.0006108648,-0.0004581486,104.26875,57.093754,113.925,left
9580801640240,0.11006984,0.061016977,9.802796,0.0,0.0006108648,-0.0004581486,104.26875,57.093754,113.925,left
9580816117324,0.11006984,0.061016977,9.802796,0.0,0.0006108648,-0.0004581486,104.325005,57.35625,115.36875,left
9580826117272,0.11006984,0.061016977,9.802796,0.0,0.0006108648,-0.0004581486,104.71876,58.10625,115.631256,left
9580820714251,0.1052842,0.06580263,9.783653,0.0,0.0006108648,-0.0004581486,104.71876,58.10625,115.631256,left
9580815751490,0.1052842,0.06580263,9.783653,0.0,0.0006108648,-0.0004581486,105.131256,59.475002,113.49375,left
9580836117219,0.1052842,0.06580263,9.783653,0.0,0.0006108648,-0.0004581486,105.131256,59.475002,113.49375,left
9580846117167,0.1052842,0.06580263,9.783653,0.0,0.0006108648,-0.0004581486,104.475006,58.631252,115.537506,left
9580839787272,0.11485548,0.05623133,9.788439,0.0,0.0006108648,-0.0004581486,104.475006,58.631252,115.537506,left
9580834824511,0.11485548,0.05623133,9.788439,0.0,0.0006108648,-0.0004581486,104.475006,58.631252,115.537506,left
9580856117115,0.11485548,0.05623133,9.788439,0.0,0.0006108648,-0.0004581486,104.943756,57.73125,114.37501,left
9580858861282,0.11964113,0.05623133,9.793225,0.0,0.0006108648,-0.0004581486,105.00001,58.162502,114.918755,left
9580866117063,0.11964113,0.05623133,9.793225,0.0,0.0006108648,-0.0004581486,105.00001,58.162502,114.918755,left
9580853898522,0.11964113,0.05623133,9.793225,0.0,0.0006108648,-0.0004581486,105.00001,58.162502,114.918755,left
9580876117011,0.11964113,0.05623133,9.793225,0.0,0.0006108648,-0.0004581486,103.4625,56.568752,113.30625,left
9580886116959,0.11964113,0.05623133,9.793225,0.0,0.0006108648,-0.0004581486,105.46876,58.537502,113.34376,left
9580872971490,0.11964113,0.05623133,9.778868,0.0,0.0006108648,-0.0004581486,105.46876,58.537502,113.34376,left
9580877934251,0.11964113,0.05623133,9.778868,0.0,0.0006108648,-0.0004581486,105.46876,58.537502,113.34376,left
9580896116907,0.11964113,0.05623133,9.778868,0.0,0.0006108648,-0.0004581486,105.95625,58.706253,115.12501,left
9580906116855,0.11964113,0.05623133,9.783653,0.0,0.0006108648,-0.0004581486,105.76875,59.68125,114.7125,left
9580897008261,0.11964113,0.05623133,9.783653,0.0,0.0006108648,-0.0004581486,105.76875,59.68125,114.7125,left
9580892045501,0.11964113,0.05623133,9.783653,0.0,0.0006108648,-0.0004581486,104.418755,56.79375,115.856255,left
9580916116803,0.11964113,0.05623133,9.783653,0.0,0.0006108648,-0.0004581486,104.418755,56.79375,115.856255,left
9580916081282,0.11006984,0.061016977,9.788439,0.0,0.0006108648,-0.0004581486,104.418755,56.79375,115.856255,left
9580911118522,0.11006984,0.061016977,9.788439,0.0,0.0006108648,-0.0004581486,104.418755,56.79375,115.856255,left
9580926116751,0.11006984,0.061016977,9.788439,0.0,0.0006108648,-0.0004581486,104.2125,57.768753,115.012505,left
9580936116699,0.11006984,0.061016977,9.788439,0.0,0.0006108648,-0.0004581486,103.9875,58.612503,114.18751,left
9580930192480,0.09571291,0.061016977,9.783653,0.0,-0.0006108648,-0.0004581486,103.9875,58.612503,114.18751,left
9580935155240,0.09571291,0.061016977,9.783653,0.0,-0.0006108648,-0.0004581486,103.9875,58.612503,114.18751,left
9580946116647,0.09571291,0.061016977,9.783653,0.0,-0.0006108648,-0.0004581486,104.71876,58.425003,113.55,left
9580956116594,0.09571291,0.061016977,9.783653,0.0,-0.0006108648,-0.0004581486,104.756256,57.281254,114.84376,left
9580949265501,0.11006984,0.06580263,9.778868,0.0,0.0006108648,-0.0004581486,104.08125,56.475002,115.12501,left
9580966116542,0.11006984,0.06580263,9.778868,0.0,0.0006108648,-0.0004581486,104.08125,56.475002,115.12501,left
9580954228261,0.11006984,0.06580263,9.778868,0.0,0.0006108648,-0.0004581486,104.756256,57.281254,114.84376,left
9580976116490,0.11006984,0.06580263,9.778868,0.0,0.0006108648,-0.0004581486,104.64375,57.693752,114.637505,left
9580973302272,0.11485548,0.07058827,9.778868,0.0,0.0006108648,-0.0004581486,104.64375,57.693752,114.637505,left
9580968339511,0.11485548,0.07058827,9.778868,0.0,0.0006108648,-0.0004581486,104.64375,57.693752,114.637505,left
9580986116438,0.11485548,0.07058827,9.778868,0.0,0.0006108648,-0.0004581486,104.43751,58.687504,113.2125,left
9580996116386,0.11485548,0.07058827,9.778868,0.0,0.0006108648,-0.0004581486,103.762505,59.30625,113.3625,left
9580992375240,0.11964113,0.061016977,9.793225,0.0,0.0006108648,-0.0004581486,103.762505,59.30625,113.3625,left
9580987412480,0.11964113,0.061016977,9.793225,0.0,0.0006108648,-0.0004581486,103.762505,59.30625,113.3625,left
9581006116334,0.11964113,0.061016977,9.793225,0.0,0.0006108648,-0.0004581486,104.981255,57.693752,116.418755,left
9581016116282,0.11964113,0.061016977,9.793225,0.0,0.0006108648,-0.0004581486,104.287506,58.48125,114.95625,left
9581011418261,0.10049855,0.061016977,9.788439,0.0,0.0006108648,-0.0004581486,103.425,57.375004,114.95625,left
9581006455501,0.10049855,0.061016977,9.788439,0.0,0.0006108648,-0.0004581486,103.425,57.375004,114.95625,left
9581026116230,0.10049855,0.061016977,9.788439,0.0,0.0006108648,-0.0004581486,103.425,57.375004,114.95625,left
9581036116178,0.10049855,0.061016977,9.788439,0.0,0.0006108648,-0.0004581486,103.0875,58.312504,115.275,left
9581030492272,0.10049855,0.061016977,9.788439,0.0,0.0006108648,0.00076358096,103.0875,58.312504,115.275,left
9581025529511,0.10049855,0.061016977,9.788439,0.0,0.0006108648,0.00076358096,103.0875,58.312504,115.275,left
9581046116126,0.10049855,0.061016977,9.788439,0.0,0.0006108648,0.00076358096,104.100006,56.775,114.525,left
9581056116074,0.124426775,0.061016977,9.788439,0.0,0.0006108648,0.00076358096,103.725006,56.643753,111.881256,left
9581044602480,0.124426775,0.061016977,9.788439,0.0,0.0006108648,-0.0004581486,103.725006,56.643753,111.881256,left
9581049565240,0.124426775,0.061016977,9.788439,0.0,0.0006108648,0.00076358096,103.725006,56.643753,111.881256,left
9581066116022,0.124426775,0.061016977,9.788439,0.0,0.0006108648,-0.0004581486,104.287506,58.500004,114.37501,left
9581076115969,0.124426775,0.061016977,9.788439,0.0,0.0006108648,-0.0004581486,104.90626,57.45,114.412506,left
9581063675501,0.10049855,0.061016977,9.783653,0.0,0.0006108648,-0.0004581486,104.90626,57.45,114.412506,left
9581068638261,0.10049855,0.061016977,9.783653,0.0,0.0006108648,-0.0004581486,104.90626,57.45,114.412506,left
9581086115917,0.10049855,0.061016977,9.783653,0.0,0.0006108648,-0.0004581486,104.4,58.406254,113.231255,left
9581096115865,0.10049855,0.061016977,9.783653,0.0,0.0006108648,-0.0004581486,103.74375,57.412502,115.725006,left
9581087712272,0.1052842,0.061016977,9.793225,0.0,0.0006108648,-0.0004581486,103.74375,57.412502,115.725006,left
9581082749511,0.1052842,0.061016977,9.793225,0.0,0.0006108648,0.00076358096,103.74375,57.412502,115.725006,left
9581106115813,0.1052842,0.061016977,9.793225,0.0,0.0006108648,0.00076358096,104.3625,59.23125,113.86875,left
9581116115761,0.11006984,0.07058827,9.793225,0.0,0.0006108648,0.00076358096,103.293755,56.4,114.037506,left
9581106785240,0.11006984,0.07058827,9.793225,0.0,0.0006108648,-0.0004581486,103.293755,56.4,114.037506,left
9581101822480,0.11006984,0.07058827,9.793225,0.0,0.0006108648,-0.0004581486,103.293755,56.4,114.037506,left
9581126115709,0.11006984,0.07058827,9.793225,0.0,0.0006108648,-0.0004581486,104.175,56.062504,115.481255,left
9581125859251,0.11006984,0.07537391,9.788439,0.0,0.0006108648,-0.0004581486,104.175,56.062504,115.481255,left
9581120896490,0.11006984,0.07537391,9.788439,0.0,0.0006108648,-0.0004581486,104.175,56.062504,115.481255,left
9581136115657,0.11006984,0.07537391,9.788439,0.0,0.0006108648,-0.0004581486,104.83125,56.081253,117.8625,left
9581146115605,0.11006984,0.07537391,9.788439,0.0,0.0006108648,-0.0004581486,107.137505,55.575,116.006256,left
9581144932272,0.10049855,0.061016977,9.783653,0.0,0.0006108648,0.00076358096,107.137505,55.575,116.006256,left
9581139969511,0.10049855,0.061016977,9.783653,0.0,0.0006108648,0.00076358096,107.137505,55.575,116.006256,left
9581156115553,0.10049855,0.061016977,9.783653,0.0,0.0006108648,0.00076358096,104.49375,55.593754,118.89375,left
9581166115501,0.10049855,0.061016977,9.783653,0.0,0.0006108648,0.00076358096,105.262505,57.600002,115.59376,left
9581164006282,0.10049855,0.05623133,9.778868,0.0,0.0006108648,0.00076358096,105.262505,57.600002,115.59376,left
9581159043522,0.10049855,0.05623133,9.778868,0.0,0.0006108648,-0.0004581486,105.262505,57.600002,115.59376,left
9581176115449,0.10049855,0.05623133,9.778868,0.0,0.0006108648,-0.0004581486,105.637505,55.66875,116.11875,left
9581186115397,0.10049855,0.05623133,9.778868,0.0,0.0006108648,-0.0004581486,103.6125,56.41875,115.0875,left
9581183079251,0.10049855,0.07058827,9.802796,0.0,0.0006108648,-0.0004581486,104.287506,57.075,114.95625,left
9581178116490,0.10049855,0.07058827,9.802796,0.0,0.0006108648,-0.0004581486,104.287506,57.075,114.95625,left
9581196115344,0.10049855,0.07058827,9.802796,0.0,0.0006108648,-0.0004581486,104.287506,57.075,114.95625,left
9581206115292,0.10049855,0.07058827,9.802796,0.0,0.0006108648,-0.0004581486,105.543755,57.3375,116.9625,left
9581202153261,0.11964113,0.06580263,9.812367,0.0,-0.0018325944,-0.0004581486,105.543755,57.3375,116.9625,left
9581197190501,0.11964113,0.06580263,9.812367,0.0,-0.0018325944,-0.0004581486,105.543755,57.3375,116.9625,left
9581216115240,0.11964113,0.06580263,9.812367,0.0,-0.0018325944,-0.0004581486,103.762505,58.968754,115.425,left
9581226115188,0.11964113,0.06580263,9.812367,0.0,-0.0018325944,-0.0004581486,104.53126,57.787502,116.06251,left
9581236115136,0.1052842,0.05623133,9.769297,-0.0012217296,0.0006108648,-0.0004581486,103.762505,58.968754,115.725006,left
9581216263522,0.1052842,0.05623133,9.769297,-0.0012217296,0.0006108648,-0.0004581486,103.762505,58.968754,115.725006,left
9581221226282,0.1052842,0.05623133,9.769297,-0.0012217296,0.0006108648,-0.0004581486,103.762505,58.968754,115.725006,left
9581246115084,0.1052842,0.05623133,9.769297,-0.0012217296,0.0006108648,-0.0004581486,103.78126,57.675003,116.43751,left
9581235337480,0.1052842,0.046660043,9.788439,0.0,0.0042760535,-0.0004581486,103.78126,57.675003,116.43751,left
9581240300240,0.1052842,0.046660043,9.788439,0.0,0.0042760535,-0.0004581486,103.78126,57.675003,116.43751,left
9581256115032,0.1052842,0.046660043,9.788439,0.0,0.0042760535,-0.0004581486,104.981255,59.287502,114.95625,left
9581266114980,0.1052842,0.046660043,9.788439,0.0,0.0042760535,-0.0004581486,105.01875,58.4625,114.318756,left
9581259373261,0.10049855,0.061016977,9.788439,0.0,-0.0006108648,-0.0004581486,105.01875,58.4625,114.318756,left
9581254410501,0.10049855,0.061016977,9.788439,0.0,-0.0006108648,-0.0004581486,105.01875,58.4625,114.318756,left
9581276114928,0.10049855,0.061016977,9.788439,0.0,-0.0006108648,-0.0004581486,104.418755,58.36875,114.262505,left
9581278447272,0.1052842,0.061016977,9.798011,0.0,-0.0006108648,0.00076358096,104.5875,57.112503,114.975006,left
9581273484511,0.1052842,0.061016977,9.798011,0.0,-0.0006108648,0.00076358096,104.5875,57.112503,114.975006,left
9581286114876,0.1052842,0.061016977,9.798011,0.0,-0.0006108648,0.00076358096,104.5875,57.112503,114.975006,left
9581296114824,0.1052842,0.061016977,9.798011,0.0,-0.0006108648,0.00076358096,104.700005,59.86875,112.256256,left
9581292557480,0.11964113,0.05623133,9.778868,0.0,0.0006108648,-0.0004581486,103.74375,57.73125,113.943756,left
9581297520240,0.11964113,0.05623133,9.778868,0.0,0.0006108648,-0.0004581486,103.74375,57.73125,113.943756,left
9581306114772,0.11964113,0.05623133,9.778868,0.0,0.0006108648,-0.0004581486,103.74375,57.73125,113.943756,left
9581316114719,0.11964113,0.05623133,9.778868,0.0,0.0006108648,-0.0004581486,102.731255,58.031254,113.512505,left
9581326114667,0.11964113,0.06580263,9.783653,0.0,0.0018325944,-0.0004581486,104.34376,57.6375,114.9,left
9581311631490,0.11964113,0.06580263,9.783653,0.0,0.0018325944,-0.0004581486,104.34376,57.6375,114.9,left
9581316594251,0.11964113,0.06580263,9.783653,0.0,0.0018325944,-0.0004581486,104.34376,57.6375,114.9,left
9581336114615,0.11964113,0.06580263,9.783653,0.0,0.0018325944,-0.0004581486,105.412506,59.381252,113.100006,left
9581335667272,0.11006984,0.06580263,9.798011,0.0,0.0006108648,0.00076358096,103.74375,57.73125,113.943756,left
9581330704511,0.11006984,0.06580263,9.798011,0.0,0.0006108648,0.00076358096,103.74375,57.73125,113.943756,left
9581346114563,0.11006984,0.06580263,9.798011,0.0,0.0006108648,0.00076358096,103.74375,57.73125,113.943756,left
9581356114511,0.11006984,0.06580263,9.798011,0.0,0.0006108648,0.00076358096,105.00001,58.48125,113.287506,left
9581354741282,0.11006984,0.061016977,9.774082,0.0,-0.0006108648,-0.0004581486,103.74375,57.393753,116.025,left
9581349778522,0.11006984,0.061016977,9.774082,0.0,-0.0006108648,-0.0004581486,103.74375,57.393753,116.025,left
9581366114459,0.11006984,0.061016977,9.774082,0.0,-0.0006108648,-0.0004581486,103.74375,57.393753,116.025,left
9581376114407,0.11006984,0.061016977,9.774082,0.0,-0.0006108648,-0.0004581486,104.43751,55.66875,115.106255,left
9581373814251,0.11964113,0.061016977,9.793225,0.0,-0.0006108648,-0.0004581486,104.43751,55.66875,115.106255,left
9581368851490,0.11964113,0.061016977,9.793225,0.0,-0.0006108648,-0.0004581486,104.43751,55.66875,115.106255,left
9581386114355,0.11964113,0.061016977,9.793225,0.0,-0.0006108648,-0.0004581486,103.2375,56.906254,115.856255,left
9581396114303,0.11964113,0.061016977,9.793225,0.0,-0.0006108648,-0.0004581486,104.86875,58.275,115.481255,left
9581392888261,0.11006984,0.05623133,9.778868,-0.0012217296,0.0006108648,-0.0004581486,104.86875,58.275,115.481255,left
9581387925501,0.11006984,0.05623133,9.778868,-0.0012217296,0.0006108648,-0.0004581486,104.86875,58.275,115.481255,left
9581406114251,0.11006984,0.05623133,9.778868,-0.0012217296,0.0006108648,-0.0004581486,103.65,56.7,115.05,left
9581416114199,0.11006984,0.05623133,9.778868,-0.0012217296,0.0006108648,-0.0004581486,105.318756,58.331253,114.80625,left
9581411931282,0.11006984,0.061016977,9.793225,0.0,0.0018325944,-0.0004581486,105.318756,58.331253,114.80625,left
9581406968522,0.11006984,0.061016977,9.793225,0.0,0.0018325944,-0.0004581486,105.318756,58.331253,114.80625,left
9581426114147,0.11006984,0.061016977,9.793225,0.0,0.0018325944,-0.0004581486,105.262505,57.91875,114.1125,left
9581436114094,0.11006984,0.061016977,9.793225,0.0,0.0018325944,-0.0004581486,103.40626,58.500004,115.443756,left
9581426041490,0.11006984,0.061016977,9.793225,0.0,-0.0006108648,-0.0004581486,103.40626,58.500004,115.443756,left
9581431004251,0.1052842,0.06580263,9.793225,0.0,-0.0006108648,-0.0004581486,102.825005,57.45,114.75001,left
9581446114042,0.1052842,0.06580263,9.793225,0.0,-0.0006108648,-0.0004581486,102.825005,57.45,114.75001,left
9581456113990,0.1052842,0.06580263,9.793225,0.0,-0.0006108648,-0.0004581486,105.637505,58.687504,113.49375,left
9581445115501,0.11485548,0.06580263,9.793225,0.0,0.0006108648,-0.0004581486,104.700005,56.86875,113.850006,left
9581466113938,0.11485548,0.06580263,9.793225,0.0,0.0006108648,-0.0004581486,104.700005,56.86875,113.850006,left
9581450078261,0.11485548,0.06580263,9.793225,0.0,0.0006108648,-0.0004581486,104.700005,56.86875,113.850006,left
9581469151282,0.11006984,0.05623133,9.788439,0.0,0.0006108648,-0.0004581486,105.58125,57.956253,114.58125,left
9581476113886,0.11006984,0.05623133,9.788439,0.0,0.0006108648,-0.0004581486,105.58125,57.956253,114.58125,left
9581486113834,0.11006984,0.05623133,9.788439,0.0,0.0018325944,-0.0004581486,104.71876,58.406254,114.58125,left
9581464188522,0.11006984,0.05623133,9.788439,0.0,0.0018325944,-0.0004581486,104.71876,58.406254,114.58125,left
9581496113782,0.11485548,0.06580263,9.788439,0.0,0.0018325944,-0.0004581486,104.175,57.825,112.387505,left
9581483262480,0.11485548,0.06580263,9.788439,0.0,0.0006108648,0.00076358096,104.175,57.825,112.387505,left
9581488225240,0.11485548,0.06580263,9.788439,0.0,0.0006108648,0.00076358096,104.175,57.825,112.387505,left
9581506113730,0.11485548,0.06580263,9.788439,0.0,0.0006108648,0.00076358096,105.8625,59.268753,114.61875,left
9581507298261,0.1052842,0.06580263,9.788439,0.0,0.0006108648,0.00076358096,103.950005,57.99375,115.8375,left
9581516113678,0.1052842,0.06580263,9.788439,0.0,0.0006108648,0.00076358096,103.950005,57.99375,115.8375,left
9581502335501,0.1052842,0.06580263,9.788439,0.0,-0.0006108648,0.00076358096,104.756256,58.687504,114.84376,left
9581526113626,0.1052842,0.06580263,9.788439,0.0,-0.0006108648,0.00076358096,104.756256,58.687504,114.84376,left
9581521409511,0.11006984,0.06580263,9.778868,-0.0012217296,-0.0006108648,-0.0004581486,104.887505,57.15,115.012505,left
9581526372272,0.11006984,0.06580263,9.778868,-0.0012217296,-0.0006108648,-0.0004581486,104.887505,57.15,115.012505,left
9581536113574,0.11006984,0.06580263,9.778868,-0.0012217296,-0.0006108648,-0.0004581486,104.887505,57.15,115.012505,left
9581546113522,0.11006984,0.06580263,9.778868,-0.0012217296,-0.0006108648,-0.0004581486,103.8,58.4625,113.006256,left
9581545445240,0.10049855,0.07058827,9.793225,0.0,0.0006108648,0.00076358096,103.8,58.4625,113.006256,left
9581540482480,0.10049855,0.07058827,9.793225,0.0,0.0006108648,0.00076358096,103.8,58.4625,113.006256,left
9581556113469,0.10049855,0.07058827,9.793225,0.0,0.0006108648,0.00076358096,105.262505,57.600002,115.87501,left
9581566113417,0.10049855,0.07058827,9.793225,0.0,0.0006108648,0.00076358096,105.037506,58.425003,115.33125,left
9581576113365,0.1052842,0.07058827,9.793225,-0.0012217296,0.0006108648,0.00076358096,104.756256,55.687504,116.5875,left
9581559556490,0.1052842,0.07058827,9.793225,-0.0012217296,0.0006108648,0.00076358096,104.756256,55.687504,116.5875,left
9581564519251,0.1052842,0.07058827,9.793225,-0.0012217296,0.0006108648,0.00076358096,104.756256,55.687504,116.5875,left
9581586113313,0.1052842,0.07058827,9.793225,-0.0012217296,0.0006108648,0.00076358096,105.450005,58.218754,114.675,left
9581583592272,0.11006984,0.061016977,9.783653,-0.0012217296,0.0006108648,0.00076358096,105.450005,58.218754,114.675,left
9581596113261,0.11006984,0.061016977,9.783653,0.0,0.0006108648,-0.0004581486,103.78126,56.5875,114.65626,left
9581578629511,0.11006984,0.061016977,9.783653,0.0,0.0006108648,-0.0004581486,103.78126,56.5875,114.65626,left
9581606113209,0.11006984,0.061016977,9.783653,0.0,0.0006108648,-0.0004581486,103.33125,57.937504,115.200005,left
9581602666282,0.11485548,0.061016977,9.778868,0.0,0.0006108648,-0.0004581486,103.33125,57.937504,115.200005,left
9581597703522,0.11485548,0.061016977,9.778868,0.0,0.0006108648,-0.0004581486,103.33125,57.937504,115.200005,left
9581616113157,0.11485548,0.061016977,9.778868,0.0,0.0006108648,-0.0004581486,103.6125,57.99375,113.756256,left
9581626113105,0.11485548,0.061016977,9.778868,0.0,0.0006108648,-0.0004581486,103.89375,59.193752,112.950005,left
9581616776490,0.11485548,0.06580263,9.793225,0.0,0.0006108648,-0.0004581486,103.89375,59.193752,112.950005,left
9581621739251,0.11485548,0.06580263,9.793225,0.0,0.0006108648,-0.0004581486,103.89375,59.193752,112.950005,left
9581636113053,0.11485548,0.06580263,9.793225,0.0,0.0006108648,-0.0004581486,104.662506,59.268753,113.90626,left
9581646113001,0.11485548,0.06580263,9.793225,0.0,0.0006108648,-0.0004581486,104.55,56.68125,115.012505,left
9581635850501,0.11006984,0.05623133,9.798011,0.0,0.0006108648,-0.0004581486,104.55,56.68125,115.012505,left
9581640813261,0.11006984,0.05623133,9.798011,0.0,0.0006108648,-0.0004581486,104.55,56.68125,115.012505,left
9581656112949,0.11006984,0.05623133,9.798011,0.0,0.0006108648,-0.0004581486,103.87501,57.300003,115.31251,left
9581666112897,0.11006984,0.05623133,9.798011,0.0,0.0006108648,-0.0004581486,104.11875,56.737503,115.8375,left
9581654923522,0.1052842,0.05623133,9.793225,0.0,0.0006108648,-0.0004581486,104.11875,56.737503,115.8375,left
9581659886282,0.1052842,0.05623133,9.793225,0.0,0.0006108648,-0.0004581486,104.11875,56.737503,115.8375,left
9581676112844,0.1052842,0.05623133,9.793225,0.0,0.0006108648,-0.0004581486,102.75001,58.0125,114.825005,left
9581686112792,0.1052842,0.05623133,9.793225,0.0,0.0006108648,-0.0004581486,105.01875,58.125004,115.950005,left
9581678960240,0.10049855,0.06580263,9.793225,0.0,0.0006108648,0.00076358096,105.01875,58.125004,115.950005,left
9581673997480,0.10049855,0.06580263,9.793225,0.0,0.0006108648,0.00076358096,105.01875,58.125004,115.950005,left
9581696112740,0.10049855,0.06580263,9.793225,0.0,0.0006108648,0.00076358096,105.05625,58.74375,114.3,left
9581706112688,0.10049855,0.06580263,9.793225,0.0,0.0006108648,0.00076358096,105.506256,58.500004,115.387505,left
9581693070501,0.11006984,0.061016977,9.783653,0.0,0.0006108648,-0.0004581486,105.506256,58.500004,115.387505,left
9581698033261,0.11006984,0.061016977,9.783653,0.0,0.0006108648,-0.0004581486,105.506256,58.500004,115.387505,left
9581716112636,0.11006984,0.061016977,9.783653,0.0,0.0006108648,-0.0004581486,105.39375,58.912502,115.05,left
9581726112584,0.1052842,0.07058827,9.788439,0.0,0.0006108648,-0.0004581486,104.606255,57.412502,114.37501,left
9581717107272,0.1052842,0.07058827,9.788439,0.0,0.0006108648,-0.0004581486,104.606255,57.412502,114.37501,left
9581712144511,0.1052842,0.07058827,9.788439,0.0,0.0006108648,-0.0004581486,103.96876,58.312504,114.506256,left
9581736112532,0.1052842,0.07058827,9.788439,0.0,0.0006108648,-0.0004581486,103.96876,58.312504,114.506256,left
9581731217480,0.11485548,0.07058827,9.783653,0.0,0.0006108648,-0.0004581486,103.96876,58.312504,114.506256,left
9581736180240,0.11485548,0.07058827,9.783653,0.0,0.0006108648,-0.0004581486,103.96876,58.312504,114.506256,left
9581746112480,0.11485548,0.07058827,9.783653,0.0,0.0006108648,-0.0004581486,106.818756,55.237503,117.168755,left
9581756112428,0.11485548,0.07058827,9.783653,0.0,0.0006108648,-0.0004581486,105.693756,57.506252,116.08125,left
9581755253261,0.11006984,0.05623133,9.783653,0.0,0.0006108648,-0.0004581486,105.693756,57.506252,116.08125,left
9581750290501,0.11006984,0.05623133,9.783653,0.0,0.0006108648,-0.0004581486,104.68125,56.23125,116.68125,left
9581766112376,0.11006984,0.05623133,9.783653,0.0,0.0006108648,-0.0004581486,104.68125,56.23125,116.68125,left
9581776112324,0.11006984,0.05623133,9.783653,0.0,0.0006108648,-0.0004581486,104.25001,53.60625,117.61875,left
9581774327272,0.11006984,0.061016977,9.798011,0.0,0.0006108648,-0.0004581486,104.25001,53.60625,117.61875,left
9581769364511,0.11006984,0.061016977,9.798011,0.0,-0.0006108648,0.00076358096,104.25001,53.60625,117.61875,left
9581786112272,0.11006984,0.061016977,9.798011,0.0,-0.0006108648,0.00076358096,105.075005,55.218754,120.168755,left
9581796112219,0.11006984,0.061016977,9.798011,0.0,-0.0006108648,0.00076358096,105.65626,56.737503,118.481255,left
9581793400240,0.11485548,0.06580263,9.793225,0.0,0.0006108648,0.00076358096,105.65626,56.737503,118.481255,left
9581788437480,0.11485548,0.06580263,9.793225,0.0,0.0006108648,0.00076358096,105.65626,56.737503,118.481255,left
9581806112167,0.11485548,0.06580263,9.793225,0.0,0.0006108648,0.00076358096,103.36875,53.643753,117.787506,left
9581816112115,0.11485548,0.06580263,9.793225,0.0,0.0006108648,0.00076358096,105.09376,55.518753,119.4,left
9581812443261,0.11485548,0.07058827,9.793225,0.0,0.0006108648,0.00076358096,105.09376,55.518753,119.4,left
9581807480501,0.11485548,0.07058827,9.793225,0.0,0.0006108648,0.00076358096,105.09376,55.518753,119.4,left
9581826112063,0.11485548,0.07058827,9.793225,0.0,0.0006108648,0.00076358096,106.33125,54.7125,118.6125,left
9581836112011,0.11485548,0.07058827,9.793225,0.0,0.0006108648,0.00076358096,105.95625,53.943752,119.08125,left
9581831517272,0.10049855,0.061016977,9.798011,0.0,0.0006108648,0.00076358096,105.95625,53.943752,119.08125,left
9581826554511,0.10049855,0.061016977,9.798011,0.0,0.0006108648,0.00076358096,105.95625,53.943752,119.08125,left
9581846111959,0.10049855,0.061016977,9.798011,0.0,0.0006108648,0.00076358096,105.24375,54.600002,117.18751,left
9581856111907,0.10049855,0.061016977,9.798011,0.0,0.0006108648,0.00076358096,103.9875,52.10625,120.3375,left
9581850590240,0.1052842,0.061016977,9.788439,0.0,0.0006108648,0.00076358096,103.9875,52.10625,120.3375,left
9581845627480,0.1052842,0.061016977,9.788439,0.0,0.0006108648,0.00076358096,103.9875,52.10625,120.3375,left
9581866111855,0.1052842,0.061016977,9.788439,0.0,0.0006108648,0.00076358096,105.037506,58.425003,115.631256,left
9581876111803,0.1052842,0.061016977,9.788439,0.0,0.0006108648,0.00076358096,104.100006,56.437504,116.887505,left
9581869664251,0.11485548,0.07058827,9.783653,0.0,0.0018325944,0.00076358096,104.100006,56.437504,116.887505,left
9581864701490,0.11485548,0.07058827,9.783653,0.0,0.0018325944,0.00076358096,104.100006,56.437504,116.887505,left
9581886111751,0.11485548,0.07058827,9.783653,0.0,0.0018325944,0.00076358096,103.275,57.187504,116.26875,left
9581896111699,0.11485548,0.07058827,9.783653,0.0,0.0018325944,0.00076358096,105.76875,56.662502,116.325005,left
9581888737272,0.10049855,0.07058827,9.802796,0.0012217296,-0.0006108648,-0.0004581486,105.76875,56.662502,116.325005,left
9581883774511,0.10049855,0.07058827,9.802796,0.0012217296,-0.0006108648,-0.0004581486,105.76875,56.662502,116.325005,left
9581906111647,0.10049855,0.07058827,9.802796,0.0012217296,-0.0006108648,-0.0004581486,103.87501,57.300003,115.31251,left
9581916111594,0.10049855,0.07058827,9.802796,0.0012217296,-0.0006108648,-0.0004581486,104.381256,57.61875,116.3625,left
9581907811282,0.11485548,0.06580263,9.778868,0.0012217296,-0.0006108648,-0.0004581486,104.381256,57.61875,116.3625,left
9581902848522,0.11485548,0.06580263,9.778868,-0.0012217296,0.0006108648,-0.0004581486,104.381256,57.61875,116.3625,left
9581926111542,0.11485548,0.06580263,9.778868,-0.0012217296,0.0006108648,-0.0004581486,104.71876,56.49375,117.95625,left
9581936111490,0.11485548,0.06580263,9.778868,0.0,0.0018325944,0.00076358096,104.3625,57.61875,115.912506,left
9581921921490,0.11485548,0.06580263,9.778868,0.0,0.0018325944,0.00076358096,104.3625,57.61875,115.912506,left
9581926884251,0.11006984,0.061016977,9.802796,0.0,0.0018325944,0.00076358096,104.3625,57.61875,115.912506,left
9581946111438,0.11006984,0.061016977,9.802796,0.0,0.0018325944,0.00076358096,104.2125,57.45,116.793755,left
9581945958261,0.10049855,0.05623133,9.788439,0.0,0.0018325944,0.00076358096,104.2125,57.45,116.793755,left
9581940995501,0.10049855,0.05623133,9.788439,0.0,-0.0006108648,-0.0004581486,104.2125,57.45,116.793755,left
9581956111386,0.10049855,0.05623133,9.788439,0.0,-0.0006108648,-0.0004581486,103.856255,57.000004,115.93125,left
9581966111334,0.10049855,0.05623133,9.788439,0.0,-0.0006108648,-0.0004581486,103.4625,57.3375,117.00001,left
9581965031282,0.11964113,0.06580263,9.788439,-0.0012217296,0.0006108648,-0.0004581486,103.4625,57.3375,117.00001,left
9581960068522,0.11964113,0.06580263,9.788439,-0.0012217296,0.0006108648,-0.0004581486,103.4625,57.3375,117.00001,left
9581976111282,0.11964113,0.06580263,9.788439,-0.0012217296,0.0006108648,-0.0004581486,106.31251,55.818752,119.381256,left
9581986111230,0.11964113,0.06580263,9.788439,-0.0012217296,0.0006108648,-0.0004581486,104.25001,56.625004,115.725006,left
9581984105240,0.11006984,0.06580263,9.783653,0.0012217296,0.0006108648,-0.0004581486,104.25001,56.625004,115.725006,left
9581996111178,0.11006984,0.06580263,9.783653,0.0012217296,0.0006108648,-0.0004581486,106.293755,57.45,116.006256,left
9581979142480,0.11006984,0.06580263,9.783653,0.0012217296,0.0006108648,-0.0004581486,104.25001,56.625004,115.725006,left
9582006111126,0.11006984,0.06580263,9.783653,0.0012217296,0.0006108648,-0.0004581486,104.850006,56.381252,117.1125,left
9582003178261,0.124426775,0.06580263,9.778868,0.0012217296,0.0006108648,-0.0004581486,104.850006,56.381252,117.1125,left
9581998215501,0.124426775,0.06580263,9.778868,-0.0012217296,0.0006108648,0.00076358096,104.68125,56.550003,115.631256,left
9582016111074,0.124426775,0.06580263,9.778868,-0.0012217296,0.0006108648,0.00076358096,104.68125,56.550003,115.631256,left
9582026111022,0.124426775,0.06580263,9.778868,-0.0012217296,0.0006108648,0.00076358096,104.30625,58.800003,113.90626,left
9582022252272,0.09571291,0.06580263,9.807582,-0.0012217296,0.0006108648,0.00076358096,104.30625,58.800003,113.90626,left
9582017289511,0.09571291,0.06580263,9.807582,0.0012217296,0.0006108648,-0.0004581486,104.30625,58.800003,113.90626,left
9582036110969,0.09571291,0.06580263,9.807582,0.0012217296,0.0006108648,-0.0004581486,104.26875,58.18125,115.425,left
9582046110917,0.09571291,0.06580263,9.807582,0.0012217296,0.0006108648,-0.0004581486,104.925,58.85625,114.412506,left
9582041325240,0.11485548,0.07058827,9.769297,0.0,-0.0006108648,-0.0004581486,104.925,58.85625,114.412506,left
9582036362480,0.11485548,0.07058827,9.769297,0.0,-0.0006108648,-0.0004581486,104.925,58.85625,114.412506,left
9582056110865,0.11485548,0.07058827,9.769297,0.0,-0.0006108648,-0.0004581486,104.418755,58.050003,116.325005,left
9582066110813,0.11485548,0.07058827,9.769297,0.0,-0.0006108648,-0.0004581486,103.14375,56.2125,115.33125,left
9582060399251,0.11964113,0.05623133,9.798011,0.0,0.0018325944,-0.0004581486,103.14375,56.2125,115.33125,left
9582055436490,0.11964113,0.05623133,9.798011,0.0,0.0018325944,-0.0004581486,103.14375,56.2125,115.33125,left
9582076110761,0.11964113,0.05623133,9.798011,0.0,0.0018325944,-0.0004581486,104.793755,57.862503,113.775,left
9582079472272,0.11485548,0.07058827,9.793225,0.0,0.0018325944,-0.0004581486,103.87501,58.706253,115.6125,left
9582086110709,0.11485548,0.07058827,9.793225,0.0,0.0018325944,-0.0004581486,103.87501,58.706253,115.6125,left
9582074509511,0.11485548,0.07058827,9.793225,0.0,0.0006108648,-0.0004581486,103.87501,58.706253,115.6125,left
9582096110657,0.11485548,0.07058827,9.793225,0.0,0.0006108648,-0.0004581486,103.87501,58.3875,116.943756,left
9582106110605,0.11485548,0.07058827,9.793225,0.0,0.0006108648,-0.0004581486,105.9,59.23125,116.381256,left
9582098546282,0.124426775,0.061016977,9.778868,0.0,0.0006108648,-0.0004581486,105.9,59.23125,116.381256,left
9582093583522,0.124426775,0.061016977,9.778868,0.0,0.0006108648,-0.0004581486,105.9,59.23125,116.381256,left
9582116110553,0.124426775,0.061016977,9.778868,0.0,0.0006108648,-0.0004581486,102.8625,59.325,113.700005,left
9582117619251,0.1052842,0.07058827,9.793225,0.0,0.0006108648,-0.0004581486,105.8625,57.693752,115.21876,left
9582112656490,0.1052842,0.07058827,9.793225,0.0,0.0006108648,0.00076358096,105.8625,57.693752,115.21876,left
9582126110501,0.1052842,0.07058827,9.793225,0.0,0.0006108648,0.00076358096,105.8625,57.693752,115.21876,left
9582136110449,0.1052842,0.07058827,9.793225,0.0,0.0006108648,0.00076358096,104.11875,56.756252,115.537506,left
9582136693261,0.11006984,0.06580263,9.793225,0.0,0.0006108648,0.00076358096,103.631256,57.99375,114.4875,left
9582146110397,0.11006984,0.06580263,9.793225,0.0,0.0006108648,0.00076358096,103.631256,57.99375,114.4875,left
9582131730501,0.11006984,0.06580263,9.793225,0.0,0.0006108648,0.00076358096,103.631256,57.99375,114.4875,left
9582156110344,0.11006984,0.06580263,9.793225,0.0,0.0006108648,0.00076358096,104.43751,58.350002,115.856255,left
9582155766282,0.11006984,0.06580263,9.793225,0.0,0.0006108648,0.00076358096,104.43751,58.350002,115.856255,left
9582150803522,0.11006984,0.06580263,9.793225,0.0,0.0018325944,0.00076358096,104.43751,58.350002,115.856255,left
9582166110292,0.11006984,0.06580263,9.793225,0.0,0.0018325944,0.00076358096,104.4,58.068752,115.293755,left
9582176110240,0.11006984,0.06580263,9.793225,0.0,0.0018325944,0.00076358096,104.49375,59.100002,114.18751,left
9582169877480,0.11006984,0.06580263,9.793225,-0.0012217296,-0.0006108648,-0.0004581486,104.49375,59.100002,114.18751,left
9582186110188,0.11006984,0.06580263,9.793225,-0.0012217296,-0.0006108648,-0.0004581486,103.818756,58.125004,115.36875,left
9582174840240,0.11006984,0.05623133,9.788439,-0.0012217296,-0.0006108648,-0.0004581486,103.818756,58.125004,115.36875,left
9582196110136,0.11006984,0.05623133,9.788439,-0.0012217296,-0.0006108648,-0.0004581486,105.675,58.968754,114.05625,left
9582188950501,0.11006984,0.05623133,9.788439,0.0,-0.0006108648,-0.0004581486,105.675,58.968754,114.05625,left
9582193913261,0.10049855,0.05623133,9.793225,0.0,-0.0006108648,-0.0004581486,104.775,58.66875,115.575005,left
9582206110084,0.10049855,0.05623133,9.793225,0.0,-0.0006108648,-0.0004581486,104.775,58.66875,115.575005,left
9582216110032,0.10049855,0.05623133,9.793225,0.0,-0.0006108648,-0.0004581486,104.775,58.66875,115.575005,left
9582212956282,0.11006984,0.07058827,9.778868,0.0,0.0006108648,-0.0004581486,102.76875,58.312504,114.225006,left
9582207993522,0.11006984,0.05623133,9.788439,0.0,0.0006108648,-0.0004581486,104.4,56.812504,114.543755,left
9582227067480,0.11006984,0.05623133,9.788439,0.0,0.0018325944,0.00076358096,104.4,56.812504,114.543755,left
9582256109824,0.11006984,0.05623133,9.788439,0.0,0.0006108648,0.00076358096,105.1125,55.8375,118.36875,left
9582232030240,0.11006984,0.05623133,9.788439,0.0,0.0018325944,0.00076358096,104.4,56.812504,114.543755,left
9582246140501,0.11964113,0.07537391,9.793225,0.0,0.0006108648,0.00076358096,105.1125,55.8375,118.36875,left
9582226109980,0.11964113,0.07537391,9.793225,0.0,0.0006108648,0.00076358096,105.1125,55.8375,118.36875,left
9582266109772,0.11964113,0.07537391,9.793225,0.0,0.0006108648,0.00076358096,106.425,53.831253,120.9,left
9582236109928,0.11964113,0.07537391,9.793225,0.0,0.0006108648,0.00076358096,105.1125,55.8375,118.36875,left
9582251103261,0.11964113,0.07537391,9.793225,0.0,0.0006108648,0.00076358096,105.1125,55.8375,118.36875,left
9582246109876,0.11006984,0.05623133,9.788439,0.0,0.0006108648,0.00076358096,105.1125,55.8375,118.36875,left
9582276109719,0.11964113,0.07537391,9.793225,0.0,0.0006108648,0.00076358096,106.68751,56.268753,120.39375,left
9582270177272,0.11006984,0.06580263,9.788439,0.0,0.0006108648,0.00076358096,106.68751,56.268753,120.39375,left
9582265214511,0.11006984,0.06580263,9.788439,0.0,0.0006108648,0.00076358096,106.68751,56.268753,120.39375,left
9582286109667,0.11006984,0.06580263,9.788439,0.0,0.0006108648,0.00076358096,107.5875,53.550003,120.9,left
9582296109615,0.11006984,0.06580263,9.788439,0.0,0.0006108648,0.00076358096,103.68751,56.662502,117.09376,left
9582289250240,0.11006984,0.05623133,9.798011,0.0,-0.0006108648,-0.0004581486,103.68751,56.662502,117.09376,left
9582284287480,0.11006984,0.05623133,9.798011,0.0,-0.0006108648,-0.0004581486,103.68751,56.662502,117.09376,left
9582306109563,0.11006984,0.05623133,9.798011,0.0,-0.0006108648,-0.0004581486,106.200005,56.41875,117.1125,left
9582316109511,0.11006984,0.05623133,9.798011,0.0,-0.0006108648,-0.0004581486,105.09376,55.85625,117.05625,left
9582308324251,0.11485548,0.05623133,9.778868,0.0,-0.0006108648,-0.0004581486,105.09376,55.85625,117.05625,left
9582303361490,0.11485548,0.05623133,9.778868,0.0,0.0018325944,-0.0004581486,105.09376,55.85625,117.05625,left
9582326109459,0.11485548,0.05623133,9.778868,0.0,0.0018325944,-0.0004581486,106.31251,57.43125,117.037506,left
9582336109407,0.11485548,0.05623133,9.778868,0.0,0.0018325944,-0.0004581486,104.3625,55.706253,119.30625,left
9582327397272,0.11006984,0.061016977,9.788439,0.0,0.0018325944,-0.0004581486,104.3625,55.706253,119.30625,left
9582322434511,0.11006984,0.061016977,9.788439,0.0,0.0018325944,-0.0004581486,104.3625,55.706253,119.30625,left
9582346109355,0.11006984,0.061016977,9.788439,0.0,0.0018325944,-0.0004581486,103.350006,57.91875,115.481255,left
9582356109303,0.1052842,0.051445685,9.788439,0.0,0.0018325944,-0.0004581486,105.525,56.8875,118.012505,left
9582346471282,0.1052842,0.051445685,9.788439,0.0,0.0018325944,-0.0004581486,105.525,56.8875,118.012505,left
9582341508522,0.1052842,0.051445685,9.788439,0.0,0.0006108648,0.00076358096,105.525,56.8875,118.012505,left
9582366109251,0.1052842,0.051445685,9.788439,0.0,0.0006108648,0.00076358096,105.56251,57.6375,116.2125,left
9582365544251,0.11006984,0.06580263,9.778868,0.0,-0.0006108648,-0.0004581486,105.56251,57.6375,116.2125,left
9582360581490,0.11006984,0.06580263,9.778868,0.0,-0.0006108648,-0.0004581486,104.43751,56.756252,116.887505,left
9582376109199,0.11006984,0.06580263,9.778868,0.0,-0.0006108648,-0.0004581486,104.43751,56.756252,116.887505,left
9582386109147,0.11006984,0.06580263,9.778868,0.0,-0.0006108648,-0.0004581486,105.75001,56.68125,115.293755,left
9582384617272,0.11964113,0.07058827,9.802796,0.0,-0.0006108648,0.00076358096,103.51875,58.0875,115.93125,left
9582396109094,0.11964113,0.07058827,9.802796,0.0,-0.0006108648,0.00076358096,103.51875,58.0875,115.93125,left
9582379654511,0.11964113,0.07058827,9.802796,0.0,-0.0006108648,0.00076358096,103.51875,58.0875,115.93125,left
9582406109042,0.11964113,0.07058827,9.802796,0.0,-0.0006108648,0.00076358096,105.037506,59.850002,114.9,left
9582403691282,0.1052842,0.061016977,9.783653,0.0,0.0018325944,-0.0004581486,105.037506,59.850002,114.9,left
9582416108990,0.1052842,0.061016977,9.783653,0.0,0.0018325944,-0.0004581486,103.387505,55.500004,116.45625,left
9582398728522,0.1052842,0.061016977,9.783653,0.0,0.0018325944,-0.0004581486,103.387505,55.500004,116.45625,left
9582426108938,0.1052842,0.061016977,9.783653,0.0,0.0018325944,-0.0004581486,104.3625,56.193752,116.64375,left
9582422764251,0.1052842,0.05623133,9.788439,0.0,0.0006108648,-0.0004581486,104.3625,56.193752,116.64375,left
9582417801490,0.1052842,0.05623133,9.788439,0.0,0.0006108648,-0.0004581486,104.3625,56.193752,116.64375,left
9582436108886,0.1052842,0.05623133,9.788439,0.0,0.0006108648,-0.0004581486,103.2375,55.65,115.106255,left
9582446108834,0.1052842,0.05623133,9.788439,0.0,0.0006108648,-0.0004581486,107.287506,56.531254,118.537506,left
9582441838261,0.1052842,0.06580263,9.793225,0.0,-0.0006108648,-0.0004581486,107.287506,56.531254,118.537506,left
9582436875501,0.1052842,0.06580263,9.793225,0.0,-0.0006108648,-0.0004581486,107.287506,56.531254,118.537506,left
9582456108782,0.1052842,0.06580263,9.793225,0.0,-0.0006108648,-0.0004581486,104.175,55.55625,118.425,left
9582466108730,0.1052842,0.06580263,9.793225,0.0,-0.0006108648,-0.0004581486,103.70625,57.112503,115.74375,left
9582455948522,0.11006984,0.07058827,9.798011,0.0,0.0018325944,0.00076358096,103.70625,57.112503,115.74375,left
9582460911282,0.11006984,0.07058827,9.798011,0.0,0.0018325944,0.00076358096,103.70625,57.112503,115.74375,left
9582476108678,0.11006984,0.07058827,9.798011,0.0,0.0018325944,0.00076358096,104.83125,57.843754,115.51875,left
9582486108626,0.11006984,0.06580263,9.793225,0.0,0.0018325944,0.00076358096,104.53126,59.381252,114.168755,left
9582479985240,0.11006984,0.06580263,9.793225,0.0,0.0006108648,0.00076358096,104.53126,59.381252,114.168755,left
9582475022480,0.11006984,0.06580263,9.793225,0.0,0.0006108648,0.00076358096,104.53126,59.381252,114.168755,left
9582496108574,0.11006984,0.06580263,9.793225,0.0,0.0006108648,0.00076358096,103.93125,58.031254,114.525,left
9582506108522,0.11006984,0.06580263,9.793225,0.0,0.0006108648,0.00076358096,103.6125,57.506252,116.568756,left
9582499058261,0.11964113,0.05623133,9.783653,-0.0012217296,0.0006108648,-0.0004581486,104.568756,59.643753,115.162506,left
9582494095501,0.11964113,0.05623133,9.783653,-0.0012217296,0.0006108648,-0.0004581486,104.568756,59.643753,115.162506,left
9582516108469,0.11964113,0.05623133,9.783653,-0.0012217296,0.0006108648,-0.0004581486,104.568756,59.643753,115.162506,left
9582526108417,0.1052842,0.061016977,9.793225,-0.0012217296,0.0006108648,-0.0004581486,105.506256,58.48125,115.96876,left
9582518132272,0.1052842,0.061016977,9.793225,-0.0012217296,0.0006108648,-0.0004581486,105.506256,58.48125,115.96876,left
9582513169511,0.1052842,0.061016977,9.793225,0.0012217296,0.0006108648,-0.0004581486,105.506256,58.48125,115.96876,left
9582536108365,0.1052842,0.061016977,9.793225,0.0012217296,0.0006108648,-0.0004581486,105.131256,59.79375,112.162506,left
9582546108313,0.124426775,0.061016977,9.788439,0.0012217296,0.0006108648,-0.0004581486,103.33125,57.937504,115.200005,left
9582537205240,0.124426775,0.061016977,9.788439,0.0012217296,0.0006108648,-0.0004581486,103.33125,57.937504,115.200005,left
9582532242480,0.124426775,0.061016977,9.788439,0.0,-0.0042760535,-0.0004581486,103.33125,57.937504,115.200005,left
9582556108261,0.124426775,0.061016977,9.788439,0.0,-0.0042760535,-0.0004581486,103.950005,59.41875,115.256256,left
9582556279251,0.11006984,0.06580263,9.798011,0.0,-0.0042760535,-0.0004581486,103.950005,59.41875,115.256256,left
9582551316490,0.11006984,0.06580263,9.798011,0.0,0.0030543238,-0.0004581486,104.53126,56.381252,115.762505,left
9582566108209,0.11006984,0.06580263,9.798011,0.0,0.0030543238,-0.0004581486,104.53126,56.381252,115.762505,left
9582576108157,0.11006984,0.06580263,9.798011,0.0,0.0030543238,-0.0004581486,103.575005,58.66875,114.8625,left
9582575352272,0.11006984,0.05623133,9.783653,-0.0012217296,0.0030543238,0.00076358096,103.575005,58.66875,114.8625,left
9582570389511,0.11006984,0.05623133,9.783653,-0.0012217296,0.0030543238,0.00076358096,103.575005,58.66875,114.8625,left
9582586108105,0.11006984,0.05623133,9.783653,-0.0012217296,0.0030543238,0.00076358096,104.64375,57.693752,114.356255,left
9582596108053,0.11006984,0.05623133,9.783653,-0.0012217296,0.0030543238,0.00076358096,103.068756,58.350002,113.81251,left
9582594426282,0.1052842,0.06580263,9.798011,0.0,-0.0018325944,-0.0004581486,103.068756,58.350002,113.81251,left
9582606108001,0.1052842,0.06580263,9.798011,0.0,-0.0018325944,-0.0004581486,105.8625,57.99375,114.168755,left
9582589463522,0.1052842,0.06580263,9.798011,0.0,-0.0018325944,-0.0004581486,103.068756,58.350002,113.81251,left
9582616107949,0.1052842,0.06580263,9.798011,0.0,-0.0018325944,-0.0004581486,105.318756,58.331253,114.80625,left
9582613469251,0.11006984,0.07058827,9.788439,0.0,-0.0018325944,-0.0004581486,105.318756,58.331253,114.80625,left
9582608506490,0.11006984,0.07058827,9.788439,0.0,-0.0018325944,-0.0004581486,105.412506,57.768753,115.443756,left
9582626107897,0.11006984,0.07058827,9.788439,0.0,-0.0018325944,-0.0004581486,105.412506,57.768753,115.443756,left
9582636107844,0.11006984,0.07058827,9.788439,0.0,-0.0018325944,-0.0004581486,103.93125,58.031254,113.793755,left
9582627579511,0.11485548,0.07058827,9.778868,-0.0012217296,0.0030543238,-0.0004581486,103.93125,58.031254,113.793755,left
9582632542272,0.11485548,0.07058827,9.778868,-0.0012217296,0.0030543238,-0.0004581486,103.93125,58.031254,113.793755,left
9582646107792,0.11485548,0.07058827,9.778868,-0.0012217296,0.0030543238,-0.0004581486,103.05,58.350002,113.512505,left
9582656107740,0.11485548,0.07058827,9.778868,-0.0012217296,0.0030543238,-0.0004581486,106.575005,58.93125,115.03126,left
9582651616282,0.1052842,0.07537391,9.802796,0.0012217296,0.0006108648,-0.0004581486,106.575005,58.93125,115.03126,left
9582646653522,0.1052842,0.07537391,9.802796,0.0012217296,0.0006108648,-0.0004581486,106.575005,58.93125,115.03126,left
9582666107688,0.1052842,0.07537391,9.802796,0.0012217296,0.0006108648,-0.0004581486,104.81251,57.862503,114.05625,left
9582676107636,0.1052842,0.07537391,9.802796,0.0012217296,0.0006108648,-0.0004581486,104.193756,57.787502,114.00001,left
9582665726490,0.11485548,0.061016977,9.778868,-0.0012217296,-0.0018325944,-0.0004581486,102.93751,57.037502,114.65626,left
9582670689251,0.11485548,0.061016977,9.778868,-0.0012217296,-0.0018325944,-0.0004581486,102.93751,57.037502,114.65626,left
9582686107584,0.11485548,0.061016977,9.778868,-0.0012217296,-0.0018325944,-0.0004581486,102.93751,57.037502,114.65626,left
9582696107532,0.11485548,0.061016977,9.778868,-0.0012217296,-0.0018325944,-0.0004581486,104.30625,58.781254,114.356255,left
9582684800501,0.1052842,0.06580263,9.788439,0.0,0.0006108648,-0.0004581486,103.481255,59.550003,113.30625,left
9582706107480,0.1052842,0.06580263,9.788439,0.0,0.0006108648,-0.0004581486,103.481255,59.550003,113.30625,left
9582689763261,0.1052842,0.06580263,9.788439,0.0,0.0006108648,-0.0004581486,104.30625,59.550003,113.30625,left
9582716107428,0.1052842,0.06580263,9.788439,0.0,0.0006108648,-0.0004581486,107.193756,58.987503,115.537506,left
9582703873522,0.1052842,0.06580263,9.774082,0.0,0.0006108648,-0.0004581486,107.193756,58.987503,115.537506,left
9582708836282,0.1052842,0.06580263,9.774082,0.0,0.0006108648,-0.0004581486,107.193756,58.987503,115.537506,left
9582726107376,0.1052842,0.06580263,9.774082,0.0,0.0006108648,-0.0004581486,103.68751,57.15,114.43125,left
9582736107324,0.1052842,0.06580263,9.774082,0.0,0.0006108648,-0.0004581486,105.543755,57.675003,114.600006,left
9582722947480,0.1052842,0.061016977,9.788439,0.0,0.0018325944,-0.0004581486,105.543755,57.675003,114.600006,left
9582727910240,0.1052842,0.061016977,9.788439,0.0,0.0018325944,-0.0004581486,105.543755,57.675003,114.600006,left
9582746107272,0.1052842,0.061016977,9.788439,0.0,0.0018325944,-0.0004581486,104.568756,58.55625,113.100006,left
9582756107219,0.1052842,0.061016977,9.788439,0.0,0.0018325944,-0.0004581486,104.606255,58.518753,115.425,left
9582742020501,0.11006984,0.06580263,9.788439,0.0,0.0006108648,0.00076358096,104.606255,58.518753,115.425,left
9582746983261,0.11006984,0.06580263,9.788439,0.0,0.0006108648,0.00076358096,104.606255,58.518753,115.425,left
9582766107167,0.11006984,0.06580263,9.788439,0.0,0.0006108648,0.00076358096,104.4,58.068752,114.8625,left
9582761094511,0.124426775,0.051445685,9.788439,0.0,-0.0006108648,-0.0004581486,104.4,58.068752,114.8625,left
9582766057272,0.124426775,0.051445685,9.788439,0.0,-0.0006108648,-0.0004581486,104.4,58.068752,114.8625,left
9582776107115,0.124426775,0.051445685,9.788439,0.0,-0.0006108648,-0.0004581486,104.26875,58.518753,113.64375,left
9582786107063,0.124426775,0.051445685,9.788439,0.0,-0.0006108648,-0.0004581486,103.575005,58.66875,114.8625,left
9582785130240,0.11006984,0.07058827,9.793225,0.0,-0.0006108648,-0.0004581486,103.575005,58.66875,114.8625,left
9582796107011,0.11006984,0.07058827,9.793225,0.0,0.0018325944,-0.0004581486,106.0875,58.575,114.7125,left
9582780167480,0.11006984,0.07058827,9.793225,0.0,0.0018325944,-0.0004581486,106.0875,58.575,114.7125,left
9582806106959,0.11006984,0.07058827,9.793225,0.0,0.0018325944,-0.0004581486,105.037506,58.425003,115.33125,left
9582804204251,0.11485548,0.061016977,9.774082,0.0,0.0018325944,-0.0004581486,105.037506,58.425003,115.33125,left
9582799241490,0.11485548,0.061016977,9.774082,0.0,0.0018325944,-0.0004581486,104.34376,57.656254,114.318756,left
9582816106907,0.11485548,0.061016977,9.774082,0.0,0.0018325944,-0.0004581486,104.34376,57.656254,114.318756,left
9582826106855,0.11485548,0.061016977,9.774082,0.0,0.0018325944,-0.0004581486,104.756256,57.2625,115.12501,left
9582823277272,0.11964113,0.051445685,9.793225,0.0,0.0018325944,-0.0004581486,104.756256,57.2625,115.12501,left
9582818314511,0.11964113,0.051445685,9.793225,0.0,-0.0006108648,-0.0004581486,104.756256,57.2625,115.12501,left
9582836106803,0.11964113,0.051445685,9.793225,0.0,-0.0006108648,-0.0004581486,104.287506,57.393753,113.606255,left
9582846106751,0.11964113,0.051445685,9.793225,0.0,-0.0006108648,-0.0004581486,104.5875,58.537502,114.693756,left
9582842351282,0.124426775,0.051445685,9.788439,-0.0012217296,-0.0006108648,-0.0004581486,104.231255,57.750004,115.4625,left
9582837388522,0.124426775,0.051445685,9.788439,-0.0012217296,-0.0006108648,-0.0004581486,104.231255,57.750004,115.4625,left
9582856106699,0.124426775,0.051445685,9.788439,-0.0012217296,-0.0006108648,-0.0004581486,104.231255,57.750004,115.4625,left
9582866106647,0.124426775,0.051445685,9.788439,-0.0012217296,-0.0006108648,-0.0004581486,104.90626,57.131252,116.025,left
9582861424251,0.1052842,0.061016977,9.793225,-0.0012217296,-0.0006108648,-0.0004581486,104.90626,57.131252,116.025,left
9582856461490,0.1052842,0.061016977,9.793225,0.0,0.0018325944,-0.0004581486,104.90626,57.131252,116.025,left
9582876106594,0.1052842,0.061016977,9.793225,0.0,0.0018325944,-0.0004581486,104.11875,56.756252,115.537506,left
9582886106542,0.1052842,0.061016977,9.793225,0.0,0.0018325944,-0.0004581486,103.51875,58.0875,115.350006,left
9582880498261,0.11006984,0.06580263,9.783653,0.0,0.0006108648,-0.0004581486,103.51875,58.0875,115.350006,left
9582875535501,0.11006984,0.06580263,9.783653,0.0,0.0006108648,-0.0004581486,103.51875,58.0875,115.350006,left
9582896106490,0.11006984,0.06580263,9.783653,0.0,0.0006108648,-0.0004581486,104.981255,57.693752,115.9875,left
9582906106438,0.11006984,0.06580263,9.783653,0.0,0.0006108648,-0.0004581486,104.943756,59.30625,113.34376,left
9582916106386,0.11006984,0.05623133,9.778868,-0.0012217296,0.0006108648,-0.0004581486,104.137505,57.206253,114.037506,left
9582899571282,0.11006984,0.05623133,9.778868,-0.0012217296,0.0006108648,-0.0004581486,104.137505,57.206253,114.037506,left
9582894608522,0.11006984,0.05623133,9.778868,-0.0012217296,0.0006108648,-0.0004581486,104.137505,57.206253,114.037506,left
9582926106334,0.11006984,0.05623133,9.778868,-0.0012217296,0.0006108648,-0.0004581486,105.1125,56.625004,114.225006,left
9582918645240,0.1052842,0.06580263,9.793225,0.0,0.0006108648,-0.0004581486,105.1125,56.625004,114.225006,left
9582913682480,0.1052842,0.06580263,9.793225,0.0,0.0006108648,-0.0004581486,105.1125,56.625004,114.225006,left
9582936106282,0.1052842,0.06580263,9.793225,0.0,0.0006108648,-0.0004581486,104.006256,58.593754,114.76875,left
9582946106230,0.11485548,0.05623133,9.778868,0.0,0.0006108648,-0.0004581486,104.175,57.487503,114.75001,left
9582937718261,0.11485548,0.05623133,9.778868,0.0,0.0006108648,-0.0004581486,104.175,57.487503,114.75001,left
9582932755501,0.11485548,0.05623133,9.778868,0.0,0.0006108648,-0.0004581486,104.175,57.487503,114.75001,left
9582956106178,0.11485548,0.05623133,9.778868,0.0,0.0006108648,-0.0004581486,103.106255,58.29375,116.5875,left
9582966106126,0.11485548,0.05623133,9.778868,0.0,0.0006108648,-0.0004581486,103.70625,57.112503,116.043755,left
9582956792272,0.11485548,0.07058827,9.788439,0.0,0.0006108648,-0.0004581486,103.70625,57.112503,116.043755,left
9582951829511,0.11485548,0.07058827,9.788439,0.0,0.0018325944,-0.0004581486,103.70625,57.112503,116.043755,left
9582976106074,0.11485548,0.07058827,9.788439,0.0,0.0018325944,-0.0004581486,104.34376,57.6375,114.9,left
9582975865240,0.11006984,0.051445685,9.783653,0.0,0.0018325944,-0.0004581486,104.34376,57.6375,114.9,left
9582970902480,0.11006984,0.051445685,9.783653,0.0,0.0006108648,-0.0004581486,104.34376,57.6375,114.9,left
9582986106022,0.11006984,0.051445685,9.783653,0.0,0.0006108648,-0.0004581486,104.662506,57.675003,115.36875,left
9582996105969,0.11006984,0.051445685,9.783653,0.0,0.0006108648,-0.0004581486,105.525,58.781254,115.36875,left
9582989976490,0.11485548,0.07058827,9.788439,0.0,0.0006108648,-0.0004581486,104.86875,58.593754,113.418755,left
9583006105917,0.11485548,0.07058827,9.788439,0.0,0.0006108648,-0.0004581486,104.86875,58.593754,113.418755,left
9582994939251,0.11485548,0.07058827,9.788439,0.0,0.0006108648,-0.0004581486,104.86875,58.593754,113.418755,left
9583016105865,0.11485548,0.07058827,9.788439,0.0,0.0006108648,-0.0004581486,104.11875,55.65,114.05625,left
9583014012272,0.124426775,0.06580263,9.783653,0.0,0.0006108648,-0.0004581486,104.11875,55.65,114.05625,left
9583009049511,0.124426775,0.06580263,9.783653,0.0,0.0006108648,0.00076358096,104.81251,57.862503,114.05625,left
9583026105813,0.124426775,0.06580263,9.783653,0.0,0.0006108648,0.00076358096,104.81251,57.862503,114.05625,left
9583036105761,0.124426775,0.06580263,9.783653,0.0,0.0006108648,0.00076358096,105.20625,57.3375,114.600006,left
9583028092480,0.1052842,0.06580263,9.783653,-0.0012217296,0.0006108648,-0.0004581486,102.80625,58.575,114.76875,left
9583033055240,0.1052842,0.06580263,9.783653,-0.0012217296,0.0006108648,-0.0004581486,102.80625,58.575,114.76875,left
9583046105709,0.1052842,0.06580263,9.783653,-0.0012217296,0.0006108648,-0.0004581486,102.80625,58.575,114.76875,left
9583056105657,0.1052842,0.06580263,9.783653,-0.0012217296,0.0006108648,-0.0004581486,105.3375,58.312504,116.11875,left
9583052128261,0.11006984,0.061016977,9.788439,0.0,-0.0006108648,0.00076358096,105.3375,58.312504,116.11875,left
9583047165501,0.11006984,0.061016977,9.788439,0.0,-0.0006108648,0.00076358096,105.3375,58.312504,116.11875,left
9583066105605,0.11006984,0.061016977,9.788439,0.0,-0.0006108648,0.00076358096,104.887505,58.575,114.43125,left
9583076105553,0.11006984,0.061016977,9.788439,0.0,-0.0006108648,0.00076358096,105.356255,57.525,113.71876,left
9583071202272,0.11006984,0.061016977,9.788439,0.0,0.0006108648,-0.0004581486,105.356255,57.525,113.71876,left
9583066239511,0.11006984,0.061016977,9.788439,0.0,0.0006108648,-0.0004581486,105.356255,57.525,113.71876,left
9583086105501,0.11006984,0.061016977,9.788439,0.0,0.0006108648,-0.0004581486,103.33125,57.937504,114.75001,left
9583096105449,0.11006984,0.061016977,9.788439,0.0,0.0006108648,-0.0004581486,104.4,58.0875,114.56251,left
9583090275240,0.11006984,0.061016977,9.793225,0.0012217296,0.0006108648,-0.0004581486,104.4,58.0875,114.56251,left
9583085312480,0.11006984,0.061016977,9.793225,0.0012217296,0.0006108648,-0.0004581486,104.4,58.0875,114.56251,left
9583106105397,0.11006984,0.061016977,9.793225,0.0012217296,0.0006108648,-0.0004581486,103.818756,59.550003,115.0875,left
9583116105344,0.11006984,0.061016977,9.793225,0.0012217296,0.0006108648,-0.0004581486,104.700005,59.531254,114.61875,left
9583104386490,0.1052842,0.06580263,9.774082,-0.0012217296,0.0006108648,-0.0004581486,103.4625,59.23125,114.356255,left
9583126105292,0.1052842,0.06580263,9.774082,-0.0012217296,0.0006108648,-0.0004581486,103.4625,59.23125,114.356255,left
9583109349251,0.1052842,0.06580263,9.774082,-0.0012217296,0.0006108648,-0.0004581486,103.4625,59.23125,114.356255,left
9583128422272,0.11485548,0.07058827,9.798011,-0.0012217296,0.0006108648,-0.0004581486,105.3,58.36875,113.49375,left
9583123459511,0.11485548,0.07058827,9.798011,0.0,0.0006108648,-0.0004581486,105.3,58.36875,113.49375,left
9583136105240,0.11485548,0.07058827,9.798011,0.0,0.0006108648,-0.0004581486,105.3,58.36875,113.49375,left
9583146105188,0.11485548,0.07058827,9.798011,0.0,0.0006108648,-0.0004581486,104.700005,56.850002,114.881256,left
9583156105136,0.11485548,0.07058827,9.798011,0.0,0.0006108648,-0.0004581486,105.46876,56.943752,114.65626,left
9583142533522,0.1052842,0.06580263,9.783653,0.0,-0.0006108648,-0.0004581486,105.46876,56.943752,114.65626,left
9583147496282,0.1052842,0.06580263,9.783653,0.0,-0.0006108648,-0.0004581486,105.46876,56.943752,114.65626,left
9583166105084,0.1052842,0.06580263,9.783653,0.0,-0.0006108648,-0.0004581486,105.356255,58.612503,115.068756,left
9583176105032,0.1052842,0.06580263,9.783653,0.0,-0.0006108648,-0.0004581486,105.543755,60.35625,114.61875,left
9583166569251,0.124426775,0.061016977,9.788439,0.0,-0.0006108648,-0.0004581486,105.543755,60.35625,114.61875,left
9583161606490,0.124426775,0.061016977,9.788439,0.0,0.0006108648,-0.0004581486,105.543755,60.35625,114.61875,left
9583186104980,0.124426775,0.061016977,9.788439,0.0,0.0006108648,-0.0004581486,103.631256,56.737503,113.45625,left
9583180680501,0.124426775,0.061016977,9.788439,0.0,-0.0006108648,-0.0004581486,103.631256,56.737503,113.45625,left
9583185643261,0.11006984,0.06580263,9.783653,0.0,-0.0006108648,-0.0004581486,102.918755,57.05625,113.925,left
9583196104928,0.11006984,0.06580263,9.783653,0.0,-0.0006108648,-0.0004581486,102.918755,57.05625,113.925,left
9583206104876,0.11006984,0.06580263,9.783653,0.0,-0.0006108648,-0.0004581486,102.95625,58.443752,115.0875,left
9583204716282,0.11964113,0.061016977,9.798011,0.0,0.0006108648,-0.0004581486,102.95625,58.443752,115.0875,left
9583199753522,0.11964113,0.061016977,9.798011,0.0,0.0006108648,-0.0004581486,102.95625,58.443752,115.0875,left
9583216104824,0.11964113,0.061016977,9.798011,0.0,0.0006108648,-0.0004581486,105.28126,56.79375,114.075005,left
9583226104772,0.11964113,0.061016977,9.798011,0.0,0.0006108648,-0.0004581486,104.62501,57.412502,114.65626,left
9583223790240,0.11964113,0.06580263,9.798011,0.0,0.0006108648,-0.0004581486,104.62501,57.412502,114.65626,left
9583218827480,0.11964113,0.06580263,9.798011,0.0,0.0006108648,-0.0004581486,104.62501,57.412502,114.65626,left
9583236104719,0.11964113,0.06580263,9.798011,0.0,0.0006108648,-0.0004581486,102.637505,58.425003,114.3375,left
9583246104667,0.11964113,0.06580263,9.798011,0.0,0.0006108648,-0.0004581486,104.71876,58.406254,114.58125,left
9583242863261,0.10049855,0.06580263,9.778868,0.0,0.0006108648,-0.0004581486,104.71876,58.406254,114.58125,left
9583237900501,0.10049855,0.06580263,9.778868,-0.0012217296,0.0006108648,-0.0004581486,103.950005,58.0125,115.537506,left
9583256104615,0.10049855,0.06580263,9.778868,-0.0012217296,0.0006108648,-0.0004581486,103.950005,58.0125,115.537506,left
9583266104563,0.10049855,0.06580263,9.778868,-0.0012217296,0.0006108648,-0.0004581486,103.70625,56.643753,118.12501,left
9583261937272,0.1052842,0.07537391,9.793225,0.0,0.0006108648,-0.0004581486,103.70625,56.643753,118.12501,left
9583256974511,0.1052842,0.07537391,9.793225,0.0,0.0006108648,-0.0004581486,103.70625,56.643753,118.12501,left
9583276104511,0.1052842,0.07537391,9.793225,0.0,0.0006108648,-0.0004581486,105.731255,56.362503,116.775,left
9583286104459,0.1052842,0.07537391,9.793225,0.0,0.0006108648,-0.0004581486,104.850006,56.7,115.481255,left
9583281010240,0.11006984,0.06580263,9.788439,-0.0012217296,0.0006108648,-0.0004581486,104.850006,56.7,115.481255,left
9583276047480,0.11006984,0.06580263,9.788439,-0.0012217296,0.0006108648,-0.0004581486,104.850006,56.7,115.481255,left
9583296104407,0.11006984,0.06580263,9.788439,-0.0012217296,0.0006108648,-0.0004581486,104.7375,56.812504,116.193756,left
9583306104355,0.11006984,0.06580263,9.788439,-0.0012217296,0.0006108648,-0.0004581486,105.18751,56.86875,116.68125,left
9583300084251,0.11006984,0.06580263,9.793225,0.0,0.0006108648,-0.0004581486,105.18751,56.86875,116.68125,left
9583295121490,0.11006984,0.06580263,9.793225,0.0,0.0006108648,-0.0004581486,105.18751,56.86875,116.68125,left
9583316104303,0.11006984,0.06580263,9.793225,0.0,0.0006108648,-0.0004581486,103.537506,56.9625,115.59376,left
9583326104251,0.11006984,0.06580263,9.793225,0.0,0.0006108648,-0.0004581486,102.600006,58.125004,114.65626,left
9583319157272,0.11006984,0.05623133,9.783653,0.0,0.0006108648,0.00076358096,102.600006,58.125004,114.65626,left
9583314194511,0.11006984,0.05623133,9.783653,0.0,0.0006108648,0.00076358096,102.600006,58.125004,114.65626,left
9583336104199,0.11006984,0.05623133,9.783653,0.0,0.0006108648,0.00076358096,105.65626,58.66875,115.0875,left
9583346104147,0.11006984,0.05623133,9.783653,0.0,0.0006108648,0.00076358096,105.225006,57.318752,115.6125,left
9583333268522,0.11485548,0.061016977,9.788439,0.0,0.0006108648,0.00076358096,105.225006,57.318752,115.6125,left
9583338231282,0.11485548,0.061016977,9.788439,0.0,0.0006108648,0.00076358096,105.225006,57.318752,115.6125,left
9583356104094,0.11485548,0.061016977,9.788439,0.0,0.0006108648,0.00076358096,105.46876,57.7125,118.36875,left
9583366104042,0.11485548,0.061016977,9.788439,0.0,0.0006108648,0.00076358096,107.662506,56.04375,117.46876,left
9583352341490,0.11006984,0.07058827,9.788439,0.0,0.0006108648,-0.0004581486,107.662506,56.04375,117.46876,left
9583357304251,0.11006984,0.07058827,9.788439,0.0,0.0006108648,-0.0004581486,107.662506,56.04375,117.46876,left
9583376103990,0.11006984,0.07058827,9.788439,0.0,0.0006108648,-0.0004581486,103.762505,55.95,117.76875,left
9583371415501,0.11006984,0.07058827,9.788439,-0.0012217296,0.0018325944,0.00076358096,105.01875,55.612503,115.03126,left
9583386103938,0.11006984,0.07058827,9.788439,-0.0012217296,0.0018325944,0.00076358096,105.01875,55.612503,115.03126,left
9583376378261,0.1052842,0.06580263,9.783653,-0.0012217296,0.0018325944,0.00076358096,105.01875,55.612503,115.03126,left
9583396103886,0.1052842,0.06580263,9.783653,-0.0012217296,0.0018325944,0.00076358096,103.9875,58.29375,115.2375,left
9583395451282,0.11006984,0.061016977,9.783653,0.0,0.0006108648,-0.0004581486,104.381256,59.175003,115.912506,left
9583390488522,0.11006984,0.061016977,9.783653,0.0,0.0006108648,-0.0004581486,104.381256,59.175003,115.912506,left
9583406103834,0.11006984,0.061016977,9.783653,0.0,0.0006108648,-0.0004581486,104.381256,59.175003,115.912506,left
9583416103782,0.11006984,0.061016977,9.783653,0.0,0.0006108648,-0.0004581486,102.693756,57.24375,116.64375,left
9583409562480,0.1052842,0.061016977,9.788439,0.0,-0.0006108648,-0.0004581486,102.693756,57.24375,116.64375,left
9583414525240,0.1052842,0.061016977,9.788439,0.0,-0.0006108648,-0.0004581486,102.693756,57.24375,116.64375,left
9583426103730,0.1052842,0.061016977,9.788439,0.0,-0.0006108648,-0.0004581486,105.881256,56.550003,115.912506,left
9583436103678,0.1052842,0.061016977,9.788439,0.0,-0.0006108648,-0.0004581486,104.43751,55.66875,115.537506,left
9583428605501,0.1052842,0.061016977,9.788439,0.0,0.0006108648,-0.0004581486,104.43751,55.66875,115.537506,left
9583433568261,0.11485548,0.07537391,9.783653,0.0,0.0006108648,-0.0004581486,105.84376,57.375004,116.981255,left
9583446103626,0.11485548,0.07537391,9.783653,0.0,0.0006108648,-0.0004581486,105.84376,57.375004,116.981255,left
9583456103574,0.11485548,0.07537391,9.783653,0.0,0.0006108648,-0.0004581486,105.09376,56.325,114.675,left
9583447678522,0.1052842,0.05623133,9.793225,0.0,0.0006108648,-0.0004581486,105.09376,56.325,114.675,left
9583452641282,0.1052842,0.05623133,9.793225,0.0,0.0006108648,-0.0004581486,105.09376,56.325,114.675,left
9583466103522,0.1052842,0.05623133,9.793225,0.0,0.0006108648,-0.0004581486,106.350006,58.031254,115.668755,left
9583476103469,0.1052842,0.05623133,9.793225,0.0,0.0006108648,-0.0004581486,104.231255,56.325,116.475006,left
9583466752480,0.11006984,0.06580263,9.798011,0.0,0.0006108648,-0.0004581486,104.231255,56.325,116.475006,left
9583471715240,0.11006984,0.06580263,9.798011,0.0,0.0006108648,-0.0004581486,104.231255,56.325,116.475006,left
9583486103417,0.11006984,0.06580263,9.798011,0.0,0.0006108648,-0.0004581486,105.787506,56.9625,116.287506,left
9583496103365,0.11006984,0.06580263,9.798011,0.0,0.0006108648,-0.0004581486,107.006256,56.943752,117.3,left
9583490788261,0.11006984,0.06580263,9.798011,0.0,-0.0006108648,0.00076358096,107.006256,56.943752,117.3,left
9583485825501,0.11006984,0.06580263,9.798011,0.0,-0.0006108648,0.00076358096,107.006256,56.943752,117.3,left
9583506103313,0.11006984,0.06580263,9.798011,0.0,-0.0006108648,0.00076358096,107.53126,56.156254,118.03126,left
9583516103261,0.11006984,0.06580263,9.798011,0.0,-0.0006108648,0.00076358096,105.637505,56.775,117.46876,left
9583509862272,0.10049855,0.06580263,9.788439,0.0,0.0006108648,-0.0004581486,105.637505,56.775,117.46876,left
9583504899511,0.10049855,0.06580263,9.788439,0.0,0.0006108648,-0.0004581486,105.637505,56.775,117.46876,left
9583526103209,0.10049855,0.06580263,9.788439,0.0,0.0006108648,-0.0004581486,105.46876,56.60625,117.318756,left
9583536103157,0.10049855,0.06580263,9.788439,0.0,0.0006108648,-0.0004581486,104.775,55.66875,117.168755,left
9583528935240,0.10049855,0.06580263,9.778868,0.0,0.0006108648,-0.0004581486,104.775,55.66875,117.168755,left
9583523972480,0.10049855,0.06580263,9.778868,0.0,0.0006108648,-0.0004581486,104.775,55.66875,117.168755,left
9583546103105,0.10049855,0.06580263,9.778868,0.0,0.0006108648,-0.0004581486,105.24375,54.300003,118.2375,left
9583556103053,0.10049855,0.06580263,9.778868,0.0,0.0006108648,-0.0004581486,104.475006,52.275,121.8375,left
9583543046490,0.1052842,0.07058827,9.783653,0.0,0.0006108648,-0.0004581486,104.475006,52.275,121.8375,left
9583548009251,0.1052842,0.07058827,9.783653,0.0,0.0006108648,-0.0004581486,104.475006,52.275,121.8375,left
9583566103001,0.1052842,0.07058827,9.783653,0.0,0.0006108648,-0.0004581486,104.700005,54.956253,117.24375,left
9583576102949,0.1052842,0.07058827,9.783653,0.0,0.0006108648,-0.0004581486,107.606255,53.86875,119.26875,left
9583567082272,0.11006984,0.051445685,9.793225,0.0,0.0006108648,-0.0004581486,107.606255,53.86875,119.26875,left
9583562119511,0.11006984,0.051445685,9.793225,0.0,-0.0006108648,-0.0004581486,107.606255,53.86875,119.26875,left
9583586102897,0.11006984,0.051445685,9.793225,0.0,-0.0006108648,-0.0004581486,104.68125,54.956253,116.943756,left
9583586156282,0.11485548,0.07058827,9.793225,-0.0012217296,0.0006108648,-0.0004581486,104.68125,54.956253,116.943756,left
9583581193522,0.11485548,0.07058827,9.793225,-0.0012217296,0.0006108648,-0.0004581486,104.68125,54.956253,116.943756,left
9583596102844,0.11485548,0.07058827,9.793225,-0.0012217296,0.0006108648,-0.0004581486,104.568756,55.218754,117.3375,left
9583606102792,0.11485548,0.07058827,9.793225,-0.0012217296,0.0006108648,-0.0004581486,103.74375,57.412502,115.425,left
9583605229251,0.10049855,0.07058827,9.793225,0.0,0.0006108648,-0.0004581486,103.74375,57.412502,115.425,left
9583600266490,0.10049855,0.07058827,9.793225,0.0,0.0006108648,-0.0004581486,105.918755,56.5125,117.525,left
9583616102740,0.10049855,0.07058827,9.793225,0.0,0.0006108648,-0.0004581486,105.918755,56.5125,117.525,left
9583626102688,0.10049855,0.07058827,9.793225,0.0,0.0006108648,-0.0004581486,103.68751,55.55625,115.762505,left
9583619340501,0.11006984,0.061016977,9.783653,0.0,0.0006108648,-0.0004581486,104.30625,57.037502,116.700005,left
9583636102636,0.11006984,0.061016977,9.783653,0.0,0.0006108648,-0.0004581486,104.30625,57.037502,116.700005,left
9583624303261,0.11006984,0.061016977,9.783653,0.0,0.0006108648,-0.0004581486,104.30625,57.037502,116.700005,left
9583646102584,0.11006984,0.061016977,9.783653,0.0,0.0006108648,-0.0004581486,104.45625,56.756252,117.61875,left
9583643376282,0.11006984,0.06580263,9.793225,0.0,0.0006108648,-0.0004581486,104.45625,56.756252,117.61875,left
9583638413522,0.11006984,0.06580263,9.793225,0.0,0.0006108648,-0.0004581486,104.45625,56.756252,117.61875,left
9583656102532,0.11006984,0.06580263,9.793225,0.0,0.0006108648,-0.0004581486,104.850006,57.80625,116.83125,left
9583666102480,0.11006984,0.06580263,9.793225,0.0,0.0006108648,-0.0004581486,105.600006,56.175003,118.2375,left
9583657487480,0.11485548,0.061016977,9.783653,0.0,0.0006108648,-0.0004581486,105.600006,56.175003,118.2375,left
9583662450240,0.11485548,0.061016977,9.783653,0.0,0.0006108648,-0.0004581486,105.600006,56.175003,118.2375,left
9583676102428,0.11485548,0.061016977,9.783653,0.0,0.0006108648,-0.0004581486,105.918755,56.5125,117.525,left
9583686102376,0.11485548,0.061016977,9.783653,0.0,0.0006108648,-0.0004581486,104.512505,56.4,115.05,left
9583681523261,0.11006984,0.061016977,9.798011,0.0,0.0006108648,-0.0004581486,104.512505,56.4,115.05,left
9583676560501,0.11006984,0.061016977,9.798011,0.0,0.0006108648,-0.0004581486,107.11875,55.10625,118.36875,left
9583696102324,0.11006984,0.061016977,9.798011,0.0,0.0006108648,-0.0004581486,107.11875,55.10625,118.36875,left
9583706102272,0.11006984,0.061016977,9.798011,0.0,0.0006108648,-0.0004581486,106.87501,55.631252,118.443756,left
9583700597272,0.124426775,0.07058827,9.788439,0.0,0.0006108648,-0.0004581486,106.87501,55.631252,118.443756,left
9583695634511,0.124426775,0.07058827,9.788439,0.0,0.0006108648,-0.0004581486,106.87501,55.631252,118.443756,left
9583716102219,0.124426775,0.07058827,9.788439,0.0,0.0006108648,-0.0004581486,104.793755,58.66875,116.30625,left
9583726102167,0.1052842,0.05623133,9.788439,0.0,0.0006108648,-0.0004581486,105.01875,58.143753,115.36875,left
9583719670240,0.1052842,0.05623133,9.788439,0.0,0.0006108648,-0.0004581486,105.01875,58.143753,115.36875,left
9583714707480,0.1052842,0.05623133,9.788439,0.0,0.0006108648,-0.0004581486,105.01875,58.143753,115.36875,left
9583746102063,0.1052842,0.05623133,9.788439,0.0,0.0006108648,-0.0004581486,106.106255,54.131252,117.76875,left
9583736102115,0.1052842,0.05623133,9.788439,0.0,0.0006108648,-0.0004581486,106.106255,54.131252,117.76875,left
9583738743261,0.11485548,0.046660043,9.798011,0.0,0.0018325944,-0.0004581486,106.106255,54.131252,117.76875,left
9583733780501,0.11485548,0.046660043,9.798011,0.0,0.0018325944,-0.0004581486,106.106255,54.131252,117.76875,left
9583756102011,0.11485548,0.046660043,9.798011,0.0,0.0018325944,-0.0004581486,106.2375,57.018753,116.043755,left
9583766101959,0.11485548,0.046660043,9.798011,0.0,0.0018325944,-0.0004581486,105.76875,56.643753,117.3375,left
9583757817272,0.11964113,0.05623133,9.778868,0.0,0.0018325944,-0.0004581486,105.76875,56.643753,117.3375,left
9583752854511,0.11964113,0.05623133,9.778868,0.0,-0.0006108648,-0.0004581486,105.76875,56.643753,117.3375,left
9583776101907,0.11964113,0.05623133,9.778868,0.0,-0.0006108648,-0.0004581486,103.425,57.05625,117.037506,left
9583786101855,0.10049855,0.06580263,9.802796,0.0,-0.0006108648,-0.0004581486,105.318756,56.737503,116.55,left
9583776890240,0.10049855,0.06580263,9.802796,0.0,-0.0006108648,-0.0004581486,105.318756,56.737503,116.55,left
9583771927480,0.10049855,0.06580263,9.802796,0.0,0.0006108648,-0.0004581486,105.318756,56.737503,116.55,left
9583796101803,0.10049855,0.06580263,9.802796,0.0,0.0006108648,-0.0004581486,104.137505,55.612503,115.8,left
9583795964251,0.11006984,0.06580263,9.778868,0.0,0.0006108648,-0.0004581486,103.40626,57.075,115.725006,left
9583791001490,0.11006984,0.06580263,9.778868,0.0,0.0006108648,-0.0004581486,103.40626,57.075,115.725006,left
9583806101751,0.11006984,0.06580263,9.778868,0.0,0.0006108648,-0.0004581486,103.40626,57.075,115.725006,left
9583816101699,0.11006984,0.06580263,9.778868,0.0,0.0006108648,-0.0004581486,104.7375,59.831253,114.58125,left
