# Session ID: 20250816_084906
# Device ID: left
# Start Time: 1755326946996
# Sample Count: 2149
# Generated by Watch IMU Recorder
timestamp,accel_x,accel_y,accel_z,gyro_x,gyro_y,gyro_z,mag_x,mag_y,mag_z,watch_name
12022502212494,-0.31106696,1.9561325,9.687941,0.0,0.0,0.0,0.0,0.0,0.0,left
12022483143952,-0.31106696,1.9561325,9.687941,0.0,0.0,0.0,0.0,0.0,0.0,left
12022521281035,-0.31106696,1.9561325,9.687941,0.0,0.0,0.0,0.0,0.0,0.0,left
12022559411348,-0.33499518,1.8508483,9.582657,0.0,0.0,0.0,0.0,0.0,0.0,left
12022578485410,-0.37328035,1.7264216,9.573085,0.0,0.0,0.0,0.0,0.0,0.0,left
12022597558431,-0.37328035,1.7264216,9.573085,-0.037873615,0.03848448,-0.045662142,0.0,0.0,0.0,left
12022592595671,-0.37328035,1.7264216,9.573085,-0.012217295,0.032375835,-0.041996952,0.0,0.0,0.0,left
12022611638639,-0.37328035,1.7264216,9.573085,-0.012217295,0.032375835,-0.041996952,0.0,0.0,0.0,left
12022616601400,-0.39720857,1.8939191,9.601799,-0.012217295,0.032375835,-0.041996952,0.0,0.0,0.0,left
12022635675410,-0.39720857,1.8939191,9.601799,-0.012217295,0.032375835,-0.041996952,0.0,0.0,0.0,left
12022650297910,-0.39720857,1.8939191,9.601799,-0.012217295,0.032375835,-0.041996952,96.99375,67.40625,103.50001,left
12022630712650,-0.39720857,1.8939191,9.601799,0.0012217296,0.026267186,-0.038331766,96.99375,67.40625,103.50001,left
12022660297858,-0.39720857,1.8939191,9.601799,0.0012217296,0.026267186,-0.038331766,96.56251,65.90625,104.475006,left
12022654748431,-0.43070808,1.7982062,9.558728,0.0012217296,0.026267186,-0.038331766,96.56251,65.90625,104.475006,left
12022649785671,-0.43070808,1.7982062,9.558728,-0.015882485,0.021380268,-0.034666575,96.56251,65.90625,104.475006,left
12022670297806,-0.43070808,1.7982062,9.558728,-0.015882485,0.021380268,-0.034666575,97.55625,68.64375,101.700005,left
12022680297754,-0.43070808,1.7982062,9.558728,-0.028099779,0.01527162,-0.032223117,98.62501,67.350006,102.675,left
12022668859629,-0.43070808,1.7982062,9.558728,-0.028099779,0.01527162,-0.032223117,98.62501,67.350006,102.675,left
12022673822389,-0.4354937,1.8317057,9.563514,-0.028099779,0.01527162,-0.032223117,98.62501,67.350006,102.675,left
12022690297702,-0.4354937,1.8317057,9.563514,-0.028099779,0.01527162,-0.032223117,96.3375,66.918755,102.318756,left
12022700297650,-0.4354937,1.8317057,9.563514,-0.028099779,0.01527162,-0.032223117,96.3375,66.918755,102.318756,left
12022687932650,-0.4354937,1.8317057,9.563514,-0.019547673,0.007941242,-0.028557928,95.175,67.18125,103.03126,left
12022710297598,-0.4354937,1.8317057,9.563514,-0.019547673,0.007941242,-0.028557928,95.175,67.18125,103.03126,left
12022692895410,-0.38285163,1.7120646,9.553943,-0.019547673,0.007941242,-0.028557928,95.175,67.18125,103.03126,left
12022720297546,-0.38285163,1.7120646,9.553943,-0.019547673,0.007941242,-0.028557928,97.4625,67.3125,104.43751,left
12022711969421,-0.39720857,1.7982062,9.601799,-0.0061086477,0.009162972,-0.022449281,97.4625,67.3125,104.43751,left
12022707006660,-0.39720857,1.7982062,9.601799,-0.0061086477,0.009162972,-0.022449281,97.4625,67.3125,104.43751,left
12022730297494,-0.39720857,1.7982062,9.601799,-0.0061086477,0.009162972,-0.022449281,97.21876,67.9875,103.762505,left
12022740297441,-0.39720857,1.7982062,9.601799,-0.0061086477,0.009162972,-0.022449281,96.131256,67.40625,104.568756,left
12022726049629,-0.40677986,1.8652053,9.625728,-0.019547673,0.007941242,-0.0151189035,96.131256,67.40625,104.568756,left
12022731012389,-0.40677986,1.8652053,9.625728,-0.019547673,0.007941242,-0.0151189035,96.131256,67.40625,104.568756,left
12022750297389,-0.40677986,1.8652053,9.625728,-0.019547673,0.007941242,-0.0151189035,95.606255,68.53125,102.225006,left
12022745122650,-0.39720857,1.7551354,9.57787,-0.036651887,0.0067195124,-0.007788526,97.14375,67.275,103.818756,left
12022750085410,-0.39720857,1.7551354,9.57787,-0.036651887,0.0067195124,-0.007788526,97.14375,67.275,103.818756,left
12022760297337,-0.39720857,1.7551354,9.57787,-0.036651887,0.0067195124,-0.007788526,97.14375,67.275,103.818756,left
12022770297285,-0.39720857,1.7551354,9.57787,-0.036651887,0.0067195124,-0.007788526,96.09376,66.037506,102.525,left
12022769159421,-0.39720857,1.6163517,9.558728,-0.012217295,0.007941242,-0.0065667965,96.09376,66.037506,102.525,left
12022764196660,-0.39720857,1.6163517,9.558728,-0.012217295,0.007941242,-0.0065667965,96.09376,68.475006,101.568756,left
12022780297233,-0.39720857,1.6163517,9.558728,-0.012217295,0.007941242,-0.0065667965,96.18751,68.475006,101.568756,left
12022790297181,-0.39720857,1.6163517,9.558728,-0.012217295,0.007941242,-0.0065667965,96.318756,68.34375,101.7375,left
12022788232389,-0.4019942,1.7120646,9.625728,0.02687805,0.01282816,-0.0065667965,95.381256,69.20625,102.131256,left
12022783269629,-0.4019942,1.7120646,9.625728,0.02687805,0.01282816,-0.0065667965,95.381256,69.20625,102.131256,left
12022800297129,-0.4019942,1.7120646,9.625728,0.02687805,0.01282816,-0.0065667965,95.381256,69.20625,102.131256,left
12022820297025,-0.46899325,1.8029919,9.57787,0.037873615,0.01527162,-0.004123337,97.21876,63.73125,104.90626,left
12022826379421,-0.46899325,1.8029919,9.57787,0.02443459,0.010384701,-0.004123337,97.21876,63.73125,104.90626,left
12022807306400,-0.44985065,1.8652053,9.664013,0.037873615,0.01527162,-0.004123337,96.525,67.05,104.512505,left
12022830296973,-0.46899325,1.8029919,9.57787,0.037873615,0.01527162,-0.004123337,97.21876,63.73125,104.90626,left
12022821416660,-0.46899325,1.8029919,9.57787,0.02443459,0.010384701,-0.004123337,98.193756,65.850006,104.231255,left
12022840296921,-0.46899325,1.8029919,9.57787,0.02443459,0.010384701,-0.004123337,98.193756,65.850006,104.231255,left
12022802343639,-0.46899325,1.8029919,9.57787,0.037873615,0.01527162,-0.004123337,97.21876,63.73125,104.90626,left
12022850296869,-0.46899325,1.8029919,9.57787,0.02443459,0.010384701,-0.004123337,99.61875,65.943756,108.75001,left
12022845422389,-0.44985065,1.8364913,9.587442,0.02443459,0.0067195124,-0.007788526,99.61875,65.943756,108.75001,left
12022840459629,-0.44985065,1.8364913,9.587442,0.02443459,0.0067195124,-0.007788526,97.21876,66.412506,105.37501,left
12022870296764,-0.44985065,1.8364913,9.587442,0.010995566,0.005497783,-0.0016798781,98.662506,64.4625,106.162506,left
12022883569421,-0.47377887,1.7455641,9.587442,-0.015882485,0.0042760535,0.009315688,100.200005,64.481255,107.943756,left
12022810297077,-0.46899325,1.8029919,9.57787,0.02443459,0.010384701,-0.004123337,97.21876,63.73125,104.90626,left
12022860296816,-0.44985065,1.8364913,9.587442,0.02443459,0.0067195124,-0.007788526,98.662506,64.4625,106.162506,left
12022910296556,-0.47377887,1.7455641,9.587442,-0.02443459,0.007941242,0.016646065,100.200005,64.481255,107.943756,left
12022902643431,-0.47377887,1.7455641,9.587442,-0.02443459,0.007941242,0.016646065,100.200005,64.481255,107.943756,left
12022897680671,-0.47377887,1.7455641,9.587442,-0.02443459,0.007941242,0.016646065,100.200005,64.481255,107.943756,left
12022864496400,-0.45942193,1.9130617,9.601799,0.010995566,0.005497783,-0.0016798781,98.11875,67.481255,106.387505,left
12022900296608,-0.47377887,1.7455641,9.587442,-0.02443459,0.007941242,0.016646065,100.200005,64.481255,107.943756,left
12022880296712,-0.45942193,1.9130617,9.601799,0.010995566,0.005497783,-0.0016798781,98.11875,67.481255,106.387505,left
12022890296660,-0.45942193,1.82692,9.625728,-0.015882485,0.0042760535,0.009315688,100.200005,64.481255,107.943756,left
12022859533639,-0.45942193,1.9130617,9.601799,0.010995566,0.005497783,-0.0016798781,98.662506,64.4625,106.162506,left
12022878606660,-0.47377887,1.7455641,9.587442,-0.015882485,0.0042760535,0.009315688,100.200005,64.481255,107.943756,left
12022920296504,-0.47377887,1.7455641,9.587442,-0.02443459,0.007941242,0.016646065,96.918755,66.375,105.3375,left
12022930296452,-0.47377887,1.7455641,9.587442,-0.02443459,0.007941242,0.016646065,98.25001,65.775,108.168755,left
12022921716400,-0.47856453,1.625923,9.64487,0.0036651888,0.0140498895,0.014202606,98.25001,65.775,108.168755,left
12022916753639,-0.47856453,1.625923,9.64487,0.0036651888,0.0140498895,0.014202606,98.25001,65.775,108.168755,left
12022940296400,-0.47856453,1.625923,9.64487,0.0036651888,0.0140498895,0.014202606,98.025,66.46875,107.49375,left
12022950296348,-0.47856453,1.625923,9.64487,0.0036651888,0.0140498895,0.014202606,95.100006,66.131256,104.86875,left
12022940790410,-0.44985065,1.8795621,9.64487,0.03054324,0.020158539,0.00320704,95.100006,66.131256,104.86875,left
12022935827650,-0.44985065,1.8795621,9.64487,0.03054324,0.020158539,0.00320704,95.100006,66.131256,104.86875,left
12022960296296,-0.44985065,1.8795621,9.64487,0.03054324,0.020158539,0.00320704,96.76875,69.356255,103.725006,left
12022959833431,-0.4211368,1.9178474,9.687941,0.020769402,0.023823727,-0.007788526,96.76875,69.356255,103.725006,left
12022954870671,-0.4211368,1.9178474,9.687941,0.020769402,0.023823727,-0.007788526,95.850006,66.24375,104.2125,left
12022970296244,-0.4211368,1.9178474,9.687941,0.020769402,0.023823727,-0.007788526,95.850006,66.24375,104.2125,left
12022980296191,-0.4211368,1.9178474,9.687941,0.020769402,0.023823727,-0.007788526,95.86875,69.39375,103.03126,left
12022973943639,-0.4211368,1.9178474,9.687941,0.0024434591,0.027488915,-0.0151189035,95.86875,69.05625,103.275,left
12022990296139,-0.4211368,1.9178474,9.687941,0.0024434591,0.027488915,-0.0151189035,97.631256,69.05625,103.275,left
12022978906400,-0.44506502,1.8317057,9.582657,0.0024434591,0.027488915,-0.0151189035,97.631256,69.05625,103.275,left
12023000296087,-0.44506502,1.8317057,9.582657,0.0024434591,0.027488915,-0.0151189035,96.37501,68.625,102.731255,left
12023010296035,-0.44506502,1.8987048,9.673584,0.0048869182,0.028710645,-0.021227552,97.6125,66.05625,104.287506,left
12022997980410,-0.44506502,1.8987048,9.673584,0.0048869182,0.028710645,-0.021227552,97.6125,66.05625,104.287506,left
12022993017650,-0.44506502,1.8987048,9.673584,0.0048869182,0.028710645,-0.021227552,97.6125,66.05625,104.287506,left
12023020295983,-0.44506502,1.8987048,9.673584,0.0048869182,0.028710645,-0.021227552,98.381256,67.2375,106.14375,left
12023017053431,-0.46899325,1.8891335,9.558728,-0.012217295,0.025045456,-0.017562363,98.381256,67.2375,106.14375,left
12023012090671,-0.46899325,1.8891335,9.558728,-0.012217295,0.025045456,-0.017562363,98.381256,67.2375,106.14375,left
12023030295931,-0.46899325,1.8891335,9.558728,-0.012217295,0.025045456,-0.017562363,95.193756,70.18125,101.71876,left
12023040295879,-0.46899325,1.8891335,9.558728,-0.012217295,0.025045456,-0.017562363,96.881256,66.731255,101.231255,left
12023036127389,-0.4881358,1.7168503,9.563514,-0.012217295,0.025045456,-0.017562363,96.881256,66.731255,101.231255,left
12023031164629,-0.4881358,1.7168503,9.563514,-0.017104214,0.022601997,-0.011453714,96.881256,66.731255,101.231255,left
12023050295827,-0.4881358,1.7168503,9.563514,-0.017104214,0.022601997,-0.011453714,98.137505,68.26875,103.256256,left
12023060295775,-0.526421,1.707279,9.539586,0.0024434591,0.021380268,-0.012675445,98.55,69.3,103.50001,left
12023055200410,-0.526421,1.707279,9.539586,0.0024434591,0.021380268,-0.012675445,98.55,69.3,103.50001,left
12023070295723,-0.526421,1.707279,9.539586,0.0024434591,0.021380268,-0.012675445,98.55,69.3,103.50001,left
12023050237650,-0.526421,1.707279,9.539586,0.0024434591,0.021380268,-0.012675445,98.55,69.3,103.50001,left
12023080295671,-0.526421,1.707279,9.539586,0.0024434591,0.021380268,-0.012675445,95.850006,66.5625,102.881256,left
12023074243431,-0.5072784,1.855634,9.664013,0.014660755,0.021380268,-0.010231985,95.850006,66.5625,102.881256,left
12023069280671,-0.5072784,1.855634,9.664013,0.014660755,0.021380268,-0.010231985,95.850006,66.5625,102.881256,left
12023090295619,-0.5072784,1.855634,9.664013,0.014660755,0.021380268,-0.010231985,96.543755,67.350006,103.162506,left
12023100295566,-0.5072784,1.855634,9.664013,0.014660755,0.021380268,-0.010231985,98.11875,67.818756,104.606255,left
12023093317389,-0.5312066,1.8939191,9.573085,-0.0097738365,0.017715078,-0.009010255,98.11875,67.818756,104.606255,left
12023088354629,-0.5312066,1.8939191,9.573085,-0.0097738365,0.017715078,-0.009010255,98.11875,67.818756,104.606255,left
12023110295514,-0.5312066,1.8939191,9.573085,-0.0097738365,0.017715078,-0.009010255,97.425,67.350006,102.39375,left
12023120295462,-0.5312066,1.8939191,9.573085,-0.0097738365,0.017715078,-0.009010255,95.83125,69.43125,100.9875,left
12023112390410,-0.526421,1.6977077,9.539586,-0.017104214,0.009162972,-0.009010255,95.83125,69.43125,100.9875,left
12023107427650,-0.526421,1.6977077,9.539586,-0.017104214,0.009162972,-0.009010255,95.83125,69.43125,100.9875,left
12023130295410,-0.526421,1.6977077,9.539586,-0.017104214,0.009162972,-0.009010255,96.75001,70.96875,100.65,left
12023140295358,-0.526421,1.6977077,9.539586,0.012217295,0.0006108648,-0.0065667965,96.8625,69.3,100.537506,left
12023126500671,-0.526421,1.6977077,9.539586,0.012217295,0.0006108648,-0.0065667965,96.8625,69.3,100.537506,left
12023131463431,-0.51206404,1.774278,9.558728,0.012217295,0.0006108648,-0.0065667965,96.20625,70.36875,99.20625,left
12023150295306,-0.51206404,1.774278,9.558728,0.012217295,0.0006108648,-0.0065667965,96.20625,70.36875,99.20625,left
12023160295254,-0.51206404,1.774278,9.558728,0.012217295,0.0006108648,-0.0065667965,94.78125,69.28125,101.606255,left
12023145574629,-0.45942193,1.8987048,9.654441,0.015882485,-0.0018325944,0.00076358096,94.78125,69.28125,101.606255,left
12023150537389,-0.45942193,1.8987048,9.654441,0.015882485,-0.0018325944,0.00076358096,94.78125,69.28125,101.606255,left
12023170295202,-0.45942193,1.8987048,9.654441,0.015882485,-0.0018325944,0.00076358096,96.46876,68.2125,102.637505,left
12023164647650,-0.45942193,1.8987048,9.654441,-0.010995566,-0.0042760535,0.00320704,95.30625,70.068756,100.87501,left
12023180295150,-0.45942193,1.7359928,9.582657,-0.010995566,-0.0042760535,0.00320704,95.30625,70.068756,100.87501,left
12023169610410,-0.45942193,1.7359928,9.582657,-0.010995566,-0.0042760535,0.00320704,95.30625,70.068756,100.87501,left
12023190295098,-0.45942193,1.7359928,9.582657,-0.010995566,-0.0042760535,0.00320704,96.46876,69.637505,101.925,left
12023183690671,-0.45942193,1.7359928,9.582657,-0.0024434591,-0.0006108648,-0.007788526,96.46876,69.637505,101.925,left
12023200295046,-0.45942193,1.7359928,9.582657,-0.0024434591,-0.0006108648,-0.007788526,96.24375,70.65,99.76875,left
12023188653431,-0.4211368,1.7599211,9.539586,-0.0024434591,-0.0006108648,-0.007788526,96.24375,70.65,99.76875,left
12023210294994,-0.37328035,1.841277,9.553943,-0.0024434591,-0.0006108648,-0.007788526,96.525,70.387505,100.256256,left
12023207727389,-0.37328035,1.841277,9.553943,-0.0024434591,-0.0006108648,-0.007788526,96.525,70.387505,100.256256,left
12023202764629,-0.37328035,1.841277,9.553943,0.0097738365,0.0018325944,-0.013897174,96.525,70.387505,100.256256,left
12023220294941,-0.37328035,1.841277,9.553943,0.0097738365,0.0018325944,-0.013897174,95.606255,68.512505,102.65626,left
12023230294889,-0.37328035,1.841277,9.553943,0.0097738365,0.0018325944,-0.013897174,95.606255,68.512505,102.65626,left
12023226800410,-0.36370903,1.8747765,9.601799,0.008552107,0.0030543238,-0.010231985,95.606255,68.512505,102.65626,left
12023221837650,-0.36370903,1.8747765,9.601799,0.008552107,0.0030543238,-0.010231985,96.05625,67.18125,101.9625,left
12023240294837,-0.36370903,1.8747765,9.601799,0.008552107,0.0030543238,-0.010231985,96.05625,67.18125,101.9625,left
12023250294785,-0.36370903,1.8747765,9.601799,0.008552107,0.0030543238,-0.010231985,95.793755,69.46875,98.943756,left
12023245874421,-0.38285163,1.7599211,9.620942,0.0024434591,-0.0030543238,0.0019853106,95.793755,69.46875,98.943756,left
12023240911660,-0.38285163,1.7599211,9.620942,0.0024434591,-0.0030543238,0.0019853106,95.793755,69.46875,98.943756,left
12023260294733,-0.38285163,1.7599211,9.620942,0.0024434591,-0.0030543238,0.0019853106,97.481255,69.20625,102.075005,left
12023270294681,-0.38285163,1.7599211,9.620942,0.0024434591,-0.0030543238,0.0019853106,96.15,66.61875,102.46876,left
12023264947389,-0.41156548,1.7455641,9.582657,0.013439025,-0.011606431,0.014202606,96.15,66.61875,102.46876,left
12023259984629,-0.41156548,1.7455641,9.582657,0.013439025,-0.011606431,0.014202606,96.15,66.61875,102.46876,left
12023280294629,-0.41156548,1.7455641,9.582657,0.013439025,-0.011606431,0.014202606,94.51875,68.4375,100.21876,left
12023290294577,-0.41156548,1.7455641,9.582657,0.013439025,-0.011606431,0.014202606,95.45625,69.9375,101.475006,left
12023284021400,-0.42592242,1.7838492,9.587442,0.021991132,-0.01527162,0.020311253,95.45625,69.9375,101.475006,left
12023279058639,-0.42592242,1.7838492,9.587442,0.021991132,-0.01527162,0.020311253,95.45625,69.9375,101.475006,left
12023300294525,-0.42592242,1.7838492,9.587442,0.021991132,-0.01527162,0.020311253,96.80625,69.01875,99.543755,left
12023310294473,-0.42592242,1.7838492,9.587442,0.021991132,-0.01527162,0.020311253,97.200005,69.450005,101.7375,left
12023303064421,-0.44985065,1.7886349,9.57787,0.02565632,-0.0140498895,0.016646065,97.200005,69.450005,101.7375,left
12023298101660,-0.44985065,1.7886349,9.57787,0.02565632,-0.0140498895,0.016646065,97.200005,69.450005,101.7375,left
12023320294421,-0.44985065,1.7886349,9.57787,0.02565632,-0.0140498895,0.016646065,95.287506,70.0875,100.293755,left
12023330294369,-0.44985065,1.7886349,9.57787,0.02565632,-0.0140498895,0.016646065,96.84376,69.3,100.106255,left
12023317174629,-0.45942193,1.8604196,9.592228,0.028099779,-0.011606431,0.008093959,96.84376,69.3,100.106255,left
12023322137389,-0.45942193,1.8604196,9.592228,0.028099779,-0.011606431,0.008093959,96.84376,69.3,100.106255,left
12023340294316,-0.45942193,1.8604196,9.592228,0.028099779,-0.011606431,0.008093959,94.950005,68.193756,100.575005,left
12023350294264,-0.45942193,1.8604196,9.592228,0.028099779,-0.011606431,0.008093959,95.9625,68.381256,98.34376,left
12023341211400,-0.49292147,1.9274186,9.640084,0.028099779,-0.011606431,0.008093959,95.9625,68.381256,98.34376,left
12023336248639,-0.49292147,1.9274186,9.640084,0.020769402,-0.01282816,0.006872229,95.9625,68.381256,98.34376,left
12023360294212,-0.49292147,1.9274186,9.640084,0.020769402,-0.01282816,0.006872229,95.512505,67.9875,100.668755,left
12023370294160,-0.55034924,1.8652053,9.616156,0.020769402,-0.01282816,0.006872229,96.56251,68.925,102.58125,left
12023360284421,-0.55034924,1.8652053,9.616156,0.008552107,-0.020158539,0.015424335,96.56251,68.925,102.58125,left
12023355321660,-0.55034924,1.8652053,9.616156,0.008552107,-0.020158539,0.015424335,96.56251,68.925,102.58125,left
12023380294108,-0.55034924,1.8652053,9.616156,0.008552107,-0.020158539,0.015424335,95.9625,68.0625,99.975006,left
12023379358431,-0.56470615,1.8747765,9.587442,0.008552107,-0.020158539,0.015424335,95.9625,68.0625,99.975006,left
12023374395671,-0.56470615,1.8747765,9.587442,0.0036651888,-0.029932374,0.021532983,95.9625,68.0625,99.975006,left
12023390294056,-0.56470615,1.8747765,9.587442,0.0036651888,-0.029932374,0.021532983,94.293755,69.1125,100.12501,left
12023400294004,-0.56470615,1.8747765,9.587442,0.0036651888,-0.029932374,0.021532983,95.381256,71.11875,99.18751,left
12023393468639,-0.56470615,1.8747765,9.587442,-0.0036651888,-0.03848448,0.021532983,96.168755,68.175,101.887505,left
12023410293952,-0.526421,1.82692,9.568299,-0.0036651888,-0.03848448,0.021532983,96.168755,68.175,101.887505,left
12023398431400,-0.526421,1.82692,9.568299,-0.0036651888,-0.03848448,0.021532983,96.168755,68.175,101.887505,left
12023420293900,-0.526421,1.82692,9.568299,-0.0036651888,-0.03848448,0.021532983,96.39375,67.481255,102.693756,left
12023417474421,-0.4881358,1.678565,9.544372,-0.0036651888,-0.03848448,0.021532983,96.39375,67.481255,102.693756,left
12023412511660,-0.4881358,1.678565,9.544372,-0.0012217296,-0.04092794,0.019089524,96.39375,67.481255,102.693756,left
12023430293848,-0.4881358,1.678565,9.544372,-0.0012217296,-0.04092794,0.019089524,96.731255,69.412506,100.668755,left
12023440293796,-0.4881358,1.678565,9.544372,-0.0012217296,-0.04092794,0.019089524,96.65626,68.3625,102.787506,left
12023436548431,-0.4642076,1.7216359,9.592228,0.02565632,-0.034819294,0.019089524,96.65626,68.3625,102.787506,left
12023431585671,-0.4642076,1.7216359,9.592228,0.02565632,-0.034819294,0.019089524,94.2375,69.9375,100.4625,left
12023450293744,-0.4642076,1.7216359,9.592228,0.02565632,-0.034819294,0.019089524,94.2375,69.9375,100.4625,left
12023460293691,-0.4642076,1.7216359,9.592228,0.02565632,-0.034819294,0.019089524,94.33125,66.8625,99.918755,left
12023455621400,-0.43070808,1.8604196,9.649655,0.03176497,-0.033597562,0.022754714,94.33125,66.8625,99.918755,left
12023450658639,-0.43070808,1.8604196,9.649655,0.03176497,-0.033597562,0.022754714,96.506256,70.068756,101.5875,left
12023470293639,-0.43070808,1.8604196,9.649655,0.03176497,-0.033597562,0.022754714,96.506256,70.068756,101.5875,left
12023480293587,-0.43070808,1.8604196,9.649655,0.03176497,-0.033597562,0.022754714,96.450005,69.3375,102.95625,left
12023474695410,-0.42592242,1.841277,9.597013,0.015882485,-0.034819294,0.022754714,96.450005,69.3375,102.95625,left
12023500293483,-0.41156548,1.9178474,9.573085,0.015882485,-0.034819294,0.022754714,95.45625,70.575005,98.3625,left
12023490293535,-0.41156548,1.9178474,9.573085,0.015882485,-0.034819294,0.022754714,95.45625,70.575005,98.3625,left
12023493768431,-0.41156548,1.9178474,9.573085,0.015882485,-0.034819294,0.022754714,95.45625,70.575005,98.3625,left
12023488805671,-0.41156548,1.9178474,9.573085,0.014660755,-0.032375835,0.019089524,95.45625,70.575005,98.3625,left
12023510293431,-0.41156548,1.9178474,9.573085,0.014660755,-0.032375835,0.019089524,95.137505,68.325005,102.037506,left
12023469732650,-0.41156548,1.9178474,9.573085,0.014660755,-0.032375835,0.019089524,95.45625,70.575005,98.3625,left
12023520293379,-0.41156548,1.9178474,9.573085,0.014660755,-0.032375835,0.019089524,96.43125,67.93125,102.225006,left
12023512842389,-0.43070808,1.82692,9.553943,0.015882485,-0.031154104,0.017867794,96.43125,67.93125,102.225006,left
12023507879629,-0.43070808,1.82692,9.553943,0.015882485,-0.031154104,0.017867794,96.43125,67.93125,102.225006,left
12023530293327,-0.43070808,1.82692,9.553943,0.015882485,-0.031154104,0.017867794,95.193756,69.075005,100.36875,left
12023540293275,-0.43070808,1.82692,9.553943,0.015882485,-0.031154104,0.017867794,95.2125,69.037506,102.412506,left
12023531885410,-0.4211368,1.7934206,9.597013,0.03054324,-0.031154104,0.016646065,95.2125,69.037506,102.412506,left
12023526922650,-0.4211368,1.7934206,9.597013,0.03054324,-0.031154104,0.016646065,95.2125,69.037506,102.412506,left
12023550293223,-0.4211368,1.7934206,9.597013,0.03054324,-0.031154104,0.016646065,96.506256,65.475006,104.512505,left
12023560293171,-0.4211368,1.7934206,9.597013,0.03054324,-0.031154104,0.016646065,95.981255,65.025,103.05,left
12023550958431,-0.41635114,1.8077775,9.635299,0.03054324,-0.031154104,0.016646065,95.981255,65.025,103.05,left
12023570032389,-0.4019942,1.8125632,9.625728,0.046425723,-0.026267186,0.016646065,95.981255,65.025,103.05,left
12023545995671,-0.4019942,1.8125632,9.625728,0.046425723,-0.026267186,0.016646065,95.981255,65.025,103.05,left
12023565069629,-0.4019942,1.8125632,9.625728,0.050090913,-0.022601997,0.0056504994,96.693756,69.1125,100.9875,left
12023570293119,-0.4019942,1.8125632,9.625728,0.050090913,-0.022601997,0.0056504994,96.693756,69.1125,100.9875,left
12023580293066,-0.4019942,1.8125632,9.625728,0.050090913,-0.022601997,0.0056504994,96.693756,69.1125,100.9875,left
12023590293014,-0.4019942,1.8125632,9.625728,0.050090913,-0.022601997,0.0056504994,96.95625,67.4625,101.175,left
12023584142650,-0.35413775,1.9034904,9.558728,0.05986475,-0.022601997,-0.012675445,96.95625,67.4625,101.175,left
12023589105410,-0.35413775,1.9034904,9.558728,0.05986475,-0.022601997,-0.012675445,96.95625,67.4625,101.175,left
12023600292962,-0.35413775,1.9034904,9.558728,0.05986475,-0.022601997,-0.012675445,95.90625,66.99375,103.425,left
12023610292910,-0.35413775,1.9034904,9.558728,0.05986475,-0.022601997,-0.012675445,95.90625,66.99375,103.425,left
12023608179421,-0.31585258,1.922633,9.568299,0.06352994,-0.018936807,-0.018784093,95.90625,66.99375,103.425,left
12023603216660,-0.31585258,1.922633,9.568299,0.06352994,-0.018936807,-0.018784093,95.90625,66.99375,103.425,left
12023620292858,-0.31585258,1.922633,9.568299,0.06352994,-0.018936807,-0.018784093,96.525,67.05,103.93125,left
12023630292806,-0.31585258,1.922633,9.568299,0.06352994,-0.018936807,-0.018784093,96.37501,67.200005,103.012505,left
12023627252389,-0.38763726,1.9417756,9.731011,0.034208428,-0.011606431,-0.020005822,96.37501,67.200005,103.012505,left
12023622289629,-0.38763726,1.9417756,9.731011,0.034208428,-0.011606431,-0.020005822,96.37501,67.200005,103.012505,left
12023640292754,-0.38763726,1.9417756,9.731011,0.034208428,-0.011606431,-0.020005822,96.7125,69.412506,100.36875,left
12023650292702,-0.38763726,1.9417756,9.731011,0.034208428,-0.011606431,-0.020005822,94.912506,66.0,103.68751,left
12023641332650,-0.4642076,1.8364913,9.764511,-0.021991132,-0.016493348,-0.028557928,94.912506,66.0,103.68751,left
12023646295410,-0.4642076,1.8364913,9.764511,-0.021991132,-0.016493348,-0.028557928,94.912506,66.0,103.68751,left
12023660292650,-0.4642076,1.8364913,9.764511,-0.021991132,-0.016493348,-0.028557928,95.53125,67.96875,101.25001,left
12023670292598,-0.4642076,1.8364913,9.764511,-0.021991132,-0.016493348,-0.028557928,96.09376,66.356255,100.59376,left
12023660406660,-0.4833502,1.8077775,9.568299,-0.06352994,-0.032375835,-0.037110034,96.09376,66.356255,100.59376,left
12023665369421,-0.4833502,1.8077775,9.568299,-0.06352994,-0.032375835,-0.037110034,96.09376,66.356255,100.59376,left
12023680292546,-0.4833502,1.8077775,9.568299,-0.06352994,-0.032375835,-0.037110034,94.5,69.7125,99.787506,left
12023690292494,-0.4833502,1.8077775,9.568299,-0.06352994,-0.032375835,-0.037110034,95.5875,68.568756,100.6125,left
12023684442389,-0.42592242,1.8508483,9.4534445,-0.1075122,-0.04703659,-0.05054906,95.5875,68.568756,100.6125,left
12023679479629,-0.42592242,1.8508483,9.4534445,-0.1075122,-0.04703659,-0.05054906,95.5875,68.568756,100.6125,left
12023700292441,-0.42592242,1.8508483,9.4534445,-0.1075122,-0.04703659,-0.05054906,95.0625,69.1875,100.78126,left
12023710292389,-0.42592242,1.8508483,9.4534445,-0.1075122,-0.04703659,-0.05054906,95.512505,67.5,103.33125,left
12023703515410,-0.36370903,1.3100704,9.305089,-0.124616414,-0.045814857,-0.05177079,95.512505,67.5,103.33125,left
12023698552650,-0.36370903,1.3100704,9.305089,-0.124616414,-0.045814857,-0.05177079,95.512505,67.5,103.33125,left
12023720292337,-0.36370903,1.3100704,9.305089,-0.124616414,-0.045814857,-0.05177079,96.731255,69.39375,101.68125,left
12023730292285,-0.36370903,1.3100704,9.305089,-0.124616414,-0.045814857,-0.05177079,95.381256,69.20625,102.131256,left
12023722589421,-0.3397808,1.4871392,9.5348,-0.0024434591,-0.028710645,-0.04444041,95.381256,69.20625,102.131256,left
12023717626660,-0.3397808,1.4871392,9.5348,-0.0024434591,-0.028710645,-0.04444041,95.381256,69.20625,102.131256,left
12023740292233,-0.3397808,1.4871392,9.5348,-0.0024434591,-0.028710645,-0.04444041,94.162506,70.818756,99.20625,left
12023750292181,-0.3397808,1.4871392,9.5348,-0.0024434591,-0.028710645,-0.04444041,94.162506,70.818756,99.20625,left
12023736699629,-0.3397808,1.4871392,9.5348,0.035430156,-0.025045456,-0.031001387,94.162506,70.818756,99.20625,left
12023741662389,-0.38763726,1.7886349,9.740582,0.035430156,-0.025045456,-0.031001387,94.162506,70.818756,99.20625,left
12023755742650,-0.37328035,1.7982062,9.568299,-0.0537561,-0.04214967,-0.028557928,96.825005,70.443756,99.84376,left
12023770292077,-0.37328035,1.7982062,9.568299,-0.0537561,-0.04214967,-0.028557928,96.4875,68.193756,103.21876,left
12023760705410,-0.37328035,1.7982062,9.568299,-0.0537561,-0.04214967,-0.028557928,96.15,69.637505,100.275,left
12023780292025,-0.37328035,1.7982062,9.568299,-0.0537561,-0.04214967,-0.028557928,96.15,69.637505,100.275,left
12023760292129,-0.37328035,1.7982062,9.568299,-0.0537561,-0.04214967,-0.028557928,96.15,69.637505,100.275,left
12023774816660,-0.3397808,1.6450655,9.410374,-0.05497783,-0.055588696,-0.027336199,95.568756,68.25,101.662506,left
12023790291973,-0.3397808,1.6450655,9.410374,-0.05497783,-0.055588696,-0.027336199,95.568756,68.25,101.662506,left
12023779779421,-0.3397808,1.6450655,9.410374,-0.05497783,-0.055588696,-0.027336199,95.568756,68.25,101.662506,left
12023800291921,-0.3397808,1.6450655,9.410374,-0.05497783,-0.055588696,-0.027336199,96.225006,70.350006,100.21876,left
12023793889629,-0.31106696,1.7982062,9.482158,-0.008552107,-0.051923506,-0.038331766,95.26875,69.80625,100.31251,left
12023810291869,-0.31106696,1.7982062,9.482158,-0.008552107,-0.051923506,-0.038331766,95.26875,69.80625,100.31251,left
12023798852389,-0.31106696,1.7982062,9.482158,-0.008552107,-0.051923506,-0.038331766,95.26875,69.80625,100.31251,left
12023820291816,-0.31106696,1.7982062,9.482158,-0.008552107,-0.051923506,-0.038331766,95.175,70.200005,100.9875,left
12023817926400,-0.41156548,1.869991,10.013365,-0.02565632,-0.053145237,-0.031001387,96.037506,68.30625,102.3,left
12023812963639,-0.41156548,1.869991,10.013365,-0.02565632,-0.053145237,-0.031001387,96.037506,68.30625,102.3,left
12023830291764,-0.41156548,1.869991,10.013365,-0.02565632,-0.053145237,-0.031001387,96.037506,68.30625,102.3,left
12023840291712,-0.41156548,1.869991,10.013365,-0.02565632,-0.053145237,-0.031001387,95.7375,68.418755,101.512505,left
12023836999421,-0.6556334,1.5876378,9.305089,-0.086742796,-0.04214967,-0.018784093,95.53125,70.9875,99.356255,left
12023832036660,-0.6556334,1.5876378,9.305089,-0.086742796,-0.04214967,-0.018784093,95.53125,70.9875,99.356255,left
12023850291660,-0.6556334,1.5876378,9.305089,-0.086742796,-0.04214967,-0.018784093,95.53125,70.9875,99.356255,left
12023860291608,-0.6556334,1.5876378,9.305089,-0.086742796,-0.04214967,-0.018784093,95.83125,69.450005,100.40626,left
12023856073431,-0.124426775,2.3724837,9.329018,-0.0036651888,0.018936807,0.03619374,95.83125,69.450005,100.40626,left
12023851110671,-0.124426775,2.3724837,9.329018,-0.0036651888,0.018936807,0.03619374,95.83125,69.450005,100.40626,left
12023870291556,-0.124426775,2.3724837,9.329018,-0.0036651888,0.018936807,0.03619374,96.600006,69.20625,102.84376,left
12023880291504,-0.124426775,2.3724837,9.329018,-0.0036651888,0.018936807,0.03619374,95.8125,69.131256,101.756256,left
12023875116400,-0.42592242,2.8845477,9.64487,0.05497783,0.051923506,0.08628465,95.8125,69.131256,101.756256,left
12023870153639,-0.42592242,2.8845477,9.64487,0.05497783,0.051923506,0.08628465,95.8125,69.131256,101.756256,left
12023890291452,-0.42592242,2.8845477,9.64487,0.05497783,0.051923506,0.08628465,94.93125,71.043755,99.43125,left
12023900291400,-0.42592242,2.8845477,9.64487,0.05497783,0.051923506,0.08628465,95.287506,70.106255,99.56251,left
12023894189421,-0.66041905,3.353541,9.697512,-0.13194679,0.058032155,0.11071924,95.287506,70.106255,99.56251,left
12023889226660,-0.66041905,3.353541,9.697512,-0.13194679,0.058032155,0.11071924,95.287506,70.106255,99.56251,left
12023910291348,-0.66041905,3.353541,9.697512,-0.13194679,0.058032155,0.11071924,96.037506,68.30625,102.3,left
12023920291296,-0.66041905,3.353541,9.697512,-0.13194679,0.058032155,0.11071924,96.825005,68.53125,102.93751,left
12023913263431,-0.27756742,1.82692,9.922438,-0.13194679,0.058032155,0.11071924,96.825005,68.53125,102.93751,left
12023908300671,-0.27756742,1.82692,9.922438,-0.32253662,0.034819294,0.12293654,96.825005,68.53125,102.93751,left
12023930291244,-0.27756742,1.82692,9.922438,-0.32253662,0.034819294,0.12293654,96.075005,68.568756,102.7125,left
12023940291191,-0.27756742,1.82692,9.922438,-0.32253662,0.034819294,0.12293654,96.1125,67.912506,101.175,left
12023927373639,-0.27756742,1.82692,9.922438,-0.20525056,-0.011606431,0.05818487,96.1125,67.912506,101.175,left
12023932336400,-0.033499517,0.654437,9.42473,-0.20525056,-0.011606431,0.05818487,96.1125,67.912506,101.175,left
12023950291139,-0.033499517,0.654437,9.42473,-0.20525056,-0.011606431,0.05818487,95.287506,68.512505,101.175,left
12023960291087,-0.033499517,0.654437,9.42473,-0.20525056,-0.011606431,0.05818487,94.59375,70.2375,101.793755,left
12023951410410,0.11964113,0.9128618,9.400802,-0.20525056,-0.011606431,0.05818487,94.59375,70.2375,101.793755,left
12023946447650,0.11964113,0.9128618,9.400802,0.037873615,0.0042760535,-0.016340632,94.59375,70.2375,101.793755,left
12023970291035,0.11964113,0.9128618,9.400802,0.037873615,0.0042760535,-0.016340632,95.568756,68.25,101.943756,left
12023980290983,-0.062213387,1.5924234,9.72144,0.037873615,0.0042760535,-0.016340632,95.7375,70.012505,100.200005,left
12023970483431,-0.062213387,1.5924234,9.72144,0.17959425,0.025045456,-0.02489274,95.7375,70.012505,100.200005,left
12023965520671,-0.062213387,1.5924234,9.72144,0.17959425,0.025045456,-0.02489274,95.7375,70.012505,100.200005,left
12023990290931,-0.062213387,1.5924234,9.72144,0.17959425,0.025045456,-0.02489274,97.21876,69.75,100.96876,left
12023989526400,-0.009571291,1.9513469,9.711869,0.17959425,0.025045456,-0.02489274,97.21876,69.75,100.96876,left
12023984563639,-0.009571291,1.9513469,9.711869,0.15271619,0.025045456,-0.016340632,94.875,70.3125,100.8,left
12024000290879,-0.009571291,1.9513469,9.711869,0.15271619,0.025045456,-0.016340632,94.875,70.3125,100.8,left
12024010290827,-0.009571291,1.9513469,9.711869,0.15271619,0.025045456,-0.016340632,96.80625,71.568756,99.881256,left
12024003637650,-0.009571291,1.9513469,9.711869,0.067195125,0.03604102,-0.0151189035,96.80625,71.568756,99.881256,left
12024020290775,-0.07178468,1.9561325,9.573085,0.067195125,0.03604102,-0.0151189035,94.425,69.76875,102.975006,left
12024008600410,-0.07178468,1.9561325,9.573085,0.067195125,0.03604102,-0.0151189035,94.425,69.76875,102.975006,left
12024030290723,-0.07178468,1.9561325,9.573085,0.067195125,0.03604102,-0.0151189035,95.34375,68.925,101.568756,left
12024027673431,-0.11006984,1.8173488,9.520443,0.02932151,0.05070178,-0.02367101,95.34375,68.925,101.568756,left
12024040290671,-0.11006984,1.8173488,9.520443,0.02932151,0.05070178,-0.02367101,93.412506,67.70625,101.025,left
12024022710671,-0.11006984,1.8173488,9.520443,0.02932151,0.05070178,-0.02367101,93.412506,67.70625,101.025,left
12024050290619,-0.11006984,1.8173488,9.520443,0.02932151,0.05070178,-0.02367101,95.287506,67.0875,101.887505,left
12024046747389,-0.15314065,1.558924,9.539586,0.02932151,0.05070178,-0.02367101,95.287506,67.0875,101.887505,left
12024060290566,-0.15314065,1.558924,9.539586,0.050090913,0.06536253,-0.037110034,96.506256,68.981255,99.525,left
12024041784629,-0.15314065,1.558924,9.539586,0.050090913,0.06536253,-0.037110034,95.287506,67.0875,101.887505,left
12024070290514,-0.15314065,1.558924,9.539586,0.050090913,0.06536253,-0.037110034,95.11875,68.34375,101.025,left
12024065820410,-0.17228323,1.5732809,9.664013,0.13439025,0.064140804,-0.041996952,95.11875,68.34375,101.025,left
12024060857650,-0.17228323,1.5732809,9.664013,0.13439025,0.064140804,-0.041996952,95.11875,68.34375,101.025,left
12024080290462,-0.17228323,1.5732809,9.664013,0.13439025,0.064140804,-0.041996952,95.0625,69.1875,100.78126,left
12024090290410,-0.17228323,1.5732809,9.664013,0.13439025,0.064140804,-0.041996952,96.075005,67.4625,101.64375,left
12024084894421,-0.22971097,1.855634,9.702297,0.18081598,0.053145237,-0.032223117,96.075005,67.4625,101.64375,left
12024079931660,-0.22971097,1.855634,9.702297,0.18081598,0.053145237,-0.032223117,96.075005,67.4625,101.64375,left
12024100290358,-0.22971097,1.855634,9.702297,0.18081598,0.053145237,-0.032223117,95.08125,69.168755,101.81251,left
12024110290306,-0.22971097,1.855634,9.702297,0.18081598,0.053145237,-0.032223117,94.725006,68.700005,101.9625,left
12024103937389,-0.28235307,2.085345,9.625728,0.18570289,0.037262753,-0.021227552,94.725006,68.700005,101.9625,left
12024098974629,-0.28235307,2.085345,9.625728,0.18570289,0.037262753,-0.021227552,94.725006,68.700005,101.9625,left
12024120290254,-0.28235307,2.085345,9.625728,0.18570289,0.037262753,-0.021227552,95.71875,69.525,102.56251,left
12024130290202,-0.28235307,2.085345,9.625728,0.18570289,0.037262753,-0.021227552,95.0625,69.506256,99.450005,left
12024123010410,-0.4546363,2.3724837,9.620942,0.14294235,0.028710645,-0.0016798781,95.0625,69.506256,99.450005,left
12024118047650,-0.4546363,2.3724837,9.620942,0.14294235,0.028710645,-0.0016798781,95.0625,69.506256,99.450005,left
12024140290150,-0.4546363,2.3724837,9.620942,0.14294235,0.028710645,-0.0016798781,95.4375,68.381256,101.775,left
12024150290098,-0.4546363,2.3724837,9.620942,0.14294235,0.028710645,-0.0016798781,95.043755,68.887505,101.53126,left
12024142084421,-0.5168497,2.2384856,9.620942,0.14294235,0.028710645,-0.0016798781,95.043755,68.887505,101.53126,left
12024137121660,-0.5168497,2.2384856,9.620942,0.05864302,0.0030543238,0.026419902,95.043755,68.887505,101.53126,left
12024160290046,-0.5168497,2.2384856,9.620942,0.05864302,0.0030543238,0.026419902,96.168755,69.600006,101.887505,left
12024170289994,-0.5168497,2.2384856,9.620942,0.05864302,0.0030543238,0.026419902,97.05,68.175,101.11875,left
12024161157389,-0.5886344,1.841277,9.57787,0.017104214,-0.017715078,0.05329795,97.05,68.175,101.11875,left
12024156194629,-0.5886344,1.841277,9.57787,0.017104214,-0.017715078,0.05329795,97.05,68.175,101.11875,left
12024180289941,-0.5886344,1.841277,9.57787,0.017104214,-0.017715078,0.05329795,95.55,68.287506,100.350006,left
12024190289889,-0.5886344,1.841277,9.57787,0.017104214,-0.017715078,0.05329795,97.443756,69.225006,100.481255,left
12024180231400,-0.6029913,1.6498512,9.520443,0.017104214,-0.017715078,0.05329795,97.443756,69.225006,100.481255,left
12024175268639,-0.6029913,1.6498512,9.520443,0.03054324,-0.027488915,0.066736974,97.443756,69.225006,100.481255,left
12024200289837,-0.6029913,1.6498512,9.520443,0.03054324,-0.027488915,0.066736974,95.64375,67.387505,102.918755,left
12024194341660,-0.6029913,1.6498512,9.520443,0.08552107,-0.023823727,0.06062833,95.137505,69.918755,100.725006,left
12024210289785,-0.6029913,1.6498512,9.520443,0.08552107,-0.023823727,0.06062833,95.137505,69.918755,100.725006,left
12024199304421,-0.56470615,1.6594225,9.520443,0.08552107,-0.023823727,0.06062833,95.137505,69.918755,100.725006,left
12024220289733,-0.56470615,1.6594225,9.520443,0.08552107,-0.023823727,0.06062833,95.625,69.0,100.293755,left
12024218347389,-0.5168497,1.922633,9.539586,0.11728604,-0.0067195124,0.043524116,97.70625,68.512505,102.168755,left
12024230289681,-0.5168497,1.922633,9.539586,0.11728604,-0.0067195124,0.043524116,97.70625,68.512505,102.168755,left
12024213384629,-0.5168497,1.922633,9.539586,0.11728604,-0.0067195124,0.043524116,97.70625,68.512505,102.168755,left
12024240289629,-0.5168497,1.922633,9.539586,0.11728604,-0.0067195124,0.043524116,96.600006,68.11875,101.3625,left
12024237421400,-0.44506502,2.1044874,9.568299,0.11117739,0.01282816,0.03375028,96.600006,68.11875,101.3625,left
12024232458639,-0.44506502,2.1044874,9.568299,0.11117739,0.01282816,0.03375028,95.68125,67.8375,101.850006,left
12024250289577,-0.44506502,2.1044874,9.568299,0.11117739,0.01282816,0.03375028,95.68125,67.8375,101.850006,left
12024260289525,-0.44506502,2.1044874,9.568299,0.11117739,0.01282816,0.03375028,96.412506,69.05625,101.9625,left
12024256494421,-0.5168497,2.353341,9.683155,0.07696896,0.01527162,0.047189303,96.412506,69.05625,101.9625,left
12024251531660,-0.5168497,2.353341,9.683155,0.07696896,0.01527162,0.047189303,96.412506,69.05625,101.9625,left
12024270289473,-0.5168497,2.353341,9.683155,0.07696896,0.01527162,0.047189303,96.4875,68.512505,101.887505,left
12024280289421,-0.5168497,2.353341,9.683155,0.07696896,0.01527162,0.047189303,96.18751,67.05,101.850006,left
12024275567389,-0.47856453,2.2145574,9.625728,0.032986697,-0.0042760535,0.048411034,96.18751,67.05,101.850006,left
12024270604629,-0.47856453,2.2145574,9.625728,0.032986697,-0.0042760535,0.048411034,96.18751,67.05,101.850006,left
12024290289369,-0.47856453,2.2145574,9.625728,0.032986697,-0.0042760535,0.048411034,96.37501,69.09375,100.36875,left
12024300289316,-0.47856453,2.2145574,9.625728,0.032986697,-0.0042760535,0.048411034,96.39375,69.09375,100.65,left
12024294641400,-0.4881358,1.9848464,9.539586,0.03054324,-0.01282816,0.045967575,96.39375,69.09375,100.65,left
12024289678639,-0.4881358,1.9848464,9.539586,0.03054324,-0.01282816,0.045967575,96.39375,69.09375,100.65,left
12024310289264,-0.4881358,1.9848464,9.539586,0.03054324,-0.01282816,0.045967575,94.70625,68.7375,100.350006,left
12024320289212,-0.4881358,1.9848464,9.539586,0.03054324,-0.01282816,0.045967575,95.30625,68.49375,101.887505,left
12024313714421,-0.5312066,1.8795621,9.496515,0.03054324,-0.01282816,0.045967575,95.30625,68.49375,101.887505,left
12024308751660,-0.5312066,1.8795621,9.496515,0.042760536,-0.007941242,0.043524116,95.30625,68.49375,101.887505,left
12024330289160,-0.5312066,1.8795621,9.496515,0.042760536,-0.007941242,0.043524116,95.700005,68.137505,101.55,left
12024340289108,-0.5312066,1.8795621,9.496515,0.042760536,-0.007941242,0.043524116,96.131256,67.89375,101.606255,left
12024327794629,-0.52163535,2.329413,9.625728,0.056199558,-0.007941242,0.052076224,96.131256,67.89375,101.606255,left
12024332757389,-0.52163535,2.329413,9.625728,0.056199558,-0.007941242,0.052076224,96.131256,67.89375,101.606255,left
12024350289056,-0.52163535,2.329413,9.625728,0.056199558,-0.007941242,0.052076224,94.93125,67.89375,101.62501,left
12024360289004,-0.52163535,2.329413,9.625728,0.056199558,-0.007941242,0.052076224,95.34375,67.8375,100.068756,left
12024351831400,-0.5168497,2.42034,9.668798,0.056199558,-0.007941242,0.052076224,95.34375,67.8375,100.068756,left
12024346868639,-0.5168497,2.42034,9.668798,0.010995566,-0.018936807,0.050854493,95.34375,67.8375,100.068756,left
12024370288952,-0.5168497,2.42034,9.668798,0.010995566,-0.018936807,0.050854493,95.512505,69.412506,99.65626,left
12024365941660,-0.4211368,2.1906292,9.616156,-0.043982264,-0.029932374,0.042302385,96.61875,71.4,99.43125,left
12024370904421,-0.4211368,2.1906292,9.616156,-0.043982264,-0.029932374,0.042302385,96.61875,71.4,99.43125,left
12024380288900,-0.4211368,2.1906292,9.616156,-0.043982264,-0.029932374,0.042302385,96.61875,71.4,99.43125,left
12024390288848,-0.4211368,2.1906292,9.616156,-0.043982264,-0.029932374,0.042302385,94.856255,70.33125,99.4875,left
12024389978431,-0.35413775,2.0183458,9.544372,-0.043982264,-0.029932374,0.042302385,94.856255,70.33125,99.4875,left
12024400288796,-0.35413775,2.0183458,9.544372,-0.06475167,-0.028710645,0.03619374,96.318756,68.68125,99.37501,left
12024385015671,-0.35413775,2.0183458,9.544372,-0.06475167,-0.028710645,0.03619374,94.856255,70.33125,99.4875,left
12024410288744,-0.35413775,2.0183458,9.544372,-0.06475167,-0.028710645,0.03619374,95.4,68.100006,101.512505,left
12024404088639,-0.29671,1.7694924,9.491729,-0.02932151,-0.027488915,0.028863361,96.318756,69.95625,99.39375,left
12024420288691,-0.29671,1.7694924,9.491729,-0.02932151,-0.027488915,0.028863361,96.318756,69.95625,99.39375,left
12024409051400,-0.29671,1.7694924,9.491729,-0.02932151,-0.027488915,0.028863361,96.318756,69.95625,99.39375,left
12024430288639,-0.29671,1.7694924,9.491729,-0.02932151,-0.027488915,0.028863361,95.68125,69.58125,99.80625,left
12024428125410,-0.23928227,2.0470598,9.558728,0.020769402,-0.0140498895,0.019089524,95.68125,69.58125,99.80625,left
12024423162650,-0.23928227,2.0470598,9.558728,0.020769402,-0.0140498895,0.019089524,95.68125,69.58125,99.80625,left
12024440288587,-0.23928227,2.0470598,9.558728,0.020769402,-0.0140498895,0.019089524,94.6875,70.18125,99.037506,left
12024450288535,-0.23928227,2.0470598,9.558728,0.020769402,-0.0140498895,0.019089524,94.912506,70.762505,99.450005,left
12024447168431,-0.24885355,2.2337,9.64487,0.020769402,-0.0140498895,0.019089524,94.912506,70.762505,99.450005,left
12024442205671,-0.24885355,2.2337,9.64487,0.0048869182,-0.0067195124,0.0129808765,94.912506,70.762505,99.450005,left
12024460288483,-0.24885355,2.2337,9.64487,0.0048869182,-0.0067195124,0.0129808765,95.793755,70.256256,101.49375,left
12024470288431,-0.24885355,2.2337,9.64487,0.0048869182,-0.0067195124,0.0129808765,95.8125,69.46875,99.675,left
12024466241400,-0.22971097,2.1762722,9.620942,0.0048869182,-0.0067195124,0.0129808765,95.8125,69.46875,99.675,left
12024461278639,-0.22971097,2.1762722,9.620942,-0.040317077,-0.0067195124,0.0044287695,95.8125,69.46875,99.675,left
12024480288379,-0.22971097,2.1762722,9.620942,-0.040317077,-0.0067195124,0.0044287695,95.86875,71.30625,100.0875,left
12024490288327,-0.22971097,2.1762722,9.620942,-0.040317077,-0.0067195124,0.0044287695,94.18125,69.675,99.18751,left
12024485315410,-0.2105684,1.989632,9.568299,-0.05497783,-0.0042760535,-0.010231985,94.18125,69.675,99.18751,left
12024480352650,-0.2105684,1.989632,9.568299,-0.05497783,-0.0042760535,-0.010231985,94.18125,69.675,99.18751,left
12024500288275,-0.2105684,1.989632,9.568299,-0.05497783,-0.0042760535,-0.010231985,94.818756,70.05,99.225006,left
12024510288223,-0.2105684,1.989632,9.568299,-0.05497783,-0.0042760535,-0.010231985,96.01875,71.175,100.256256,left
12024504388431,-0.25842485,1.8891335,9.5348,-0.037873615,0.0018325944,-0.017562363,96.39375,69.412506,99.318756,left
12024520288171,-0.25842485,1.8891335,9.5348,-0.037873615,0.0018325944,-0.017562363,96.39375,69.412506,99.318756,left
12024499425671,-0.25842485,1.8891335,9.5348,-0.037873615,0.0018325944,-0.017562363,96.39375,69.412506,99.318756,left
12024530288119,-0.25842485,1.8891335,9.5348,-0.037873615,0.0018325944,-0.017562363,95.30625,68.981255,99.525,left
12024518499629,-0.2536392,2.032703,9.57787,-0.015882485,0.009162972,-0.021227552,95.25,70.14375,97.51875,left
12024540288066,-0.2536392,2.032703,9.57787,-0.015882485,0.009162972,-0.021227552,95.25,70.14375,97.51875,left
12024523462389,-0.2536392,2.032703,9.57787,-0.015882485,0.009162972,-0.021227552,95.25,70.14375,97.51875,left
12024550288014,-0.2536392,2.032703,9.57787,-0.015882485,0.009162972,-0.021227552,95.34375,69.262505,99.506256,left
12024542535410,-0.27756742,1.9609182,9.553943,-0.015882485,0.009162972,-0.021227552,95.34375,69.262505,99.506256,left
12024537572650,-0.27756742,1.9609182,9.553943,-0.014660755,0.01527162,-0.022449281,95.34375,69.262505,99.506256,left
12024560287962,-0.27756742,1.9609182,9.553943,-0.014660755,0.01527162,-0.022449281,96.543755,70.36875,101.137505,left
12024570287910,-0.27756742,1.9609182,9.553943,-0.014660755,0.01527162,-0.022449281,96.05625,67.162506,102.262505,left
12024561578431,-0.30149564,1.8652053,9.496515,-0.014660755,0.01527162,-0.022449281,96.05625,67.162506,102.262505,left
12024556615671,-0.30149564,1.8652053,9.496515,0.0,0.025045456,-0.02611447,96.05625,67.162506,102.262505,left
12024580287858,-0.30149564,1.8652053,9.496515,0.0,0.025045456,-0.02611447,97.93125,69.412506,101.68125,left
12024590287806,-0.30149564,1.8652053,9.496515,0.0,0.025045456,-0.02611447,95.568756,69.84375,99.9,left
12024575689629,-0.3684947,1.9704895,9.544372,0.02932151,0.034819294,-0.027336199,95.568756,69.84375,99.9,left
12024580652389,-0.3684947,1.9704895,9.544372,0.02932151,0.034819294,-0.027336199,95.568756,69.84375,99.9,left
12024600287754,-0.3684947,1.9704895,9.544372,0.02932151,0.034819294,-0.027336199,96.20625,70.387505,98.756256,left
12024599725410,-0.4211368,2.12363,9.573085,0.02932151,0.034819294,-0.027336199,96.20625,70.387505,98.756256,left
12024594762650,-0.4211368,2.12363,9.573085,0.021991132,0.03604102,-0.022449281,96.20625,70.387505,98.756256,left
12024610287702,-0.4211368,2.12363,9.573085,0.021991132,0.03604102,-0.022449281,95.11875,69.9375,99.412506,left
12024620287650,-0.4211368,2.12363,9.573085,0.021991132,0.03604102,-0.022449281,95.775,69.168755,99.7125,left
12024613836660,-0.4211368,2.12363,9.573085,0.0024434591,0.025045456,-0.016340632,95.775,69.168755,99.7125,left
12024630287598,-0.44027936,1.9369899,9.553943,0.0024434591,0.025045456,-0.016340632,95.887505,70.18125,99.61875,left
12024618799421,-0.44027936,1.9369899,9.553943,0.0024434591,0.025045456,-0.016340632,95.887505,70.18125,99.61875,left
12024637872389,-0.44027936,1.9704895,9.573085,0.0024434591,0.025045456,-0.016340632,96.543755,70.36875,101.137505,left
12024640287546,-0.44027936,1.9704895,9.573085,0.0024434591,0.025045456,-0.016340632,96.543755,70.36875,101.137505,left
12024632909629,-0.44027936,1.9704895,9.573085,0.018325943,0.01527162,-0.009010255,96.39375,69.39375,99.61875,left
12024650287494,-0.44027936,1.9704895,9.573085,0.018325943,0.01527162,-0.009010255,96.39375,69.39375,99.61875,left
12024660287441,-0.44027936,1.9704895,9.573085,0.018325943,0.01527162,-0.009010255,96.43125,69.675,99.881256,left
12024656946400,-0.42592242,2.032703,9.582657,0.018325943,0.01527162,-0.009010255,96.43125,69.675,99.881256,left
12024651983639,-0.42592242,2.032703,9.582657,0.028099779,0.009162972,-0.007788526,96.43125,69.675,99.881256,left
12024670287389,-0.42592242,2.032703,9.582657,0.028099779,0.009162972,-0.007788526,95.34375,69.262505,99.20625,left
12024680287337,-0.42592242,2.032703,9.582657,0.028099779,0.009162972,-0.007788526,96.76875,68.25,102.24375,left
12024675989421,-0.41635114,2.152344,9.573085,0.0097738365,0.0067195124,-0.004123337,96.76875,68.25,102.24375,left
12024671026660,-0.41635114,2.152344,9.573085,0.0097738365,0.0067195124,-0.004123337,96.76875,68.25,102.24375,left
12024690287285,-0.41635114,2.152344,9.573085,0.0097738365,0.0067195124,-0.004123337,99.881256,64.762505,105.84376,left
12024700287233,-0.41635114,2.152344,9.573085,0.0097738365,0.0067195124,-0.004123337,98.568756,68.193756,102.450005,left
12024695062389,-0.40677986,2.0470598,9.573085,-0.013439025,0.0030543238,-0.0029016077,98.568756,68.193756,102.450005,left
12024690099629,-0.40677986,2.0470598,9.573085,-0.013439025,0.0030543238,-0.0029016077,98.568756,68.193756,102.450005,left
12024710287181,-0.40677986,2.0470598,9.573085,-0.013439025,0.0030543238,-0.0029016077,96.15,69.61875,100.87501,left
12024720287129,-0.40677986,2.0470598,9.573085,-0.013439025,0.0030543238,-0.0029016077,97.21876,66.75,102.58125,left
12024714136400,-0.39720857,1.9800607,9.539586,0.0024434591,0.0042760535,-0.0029016077,97.21876,66.75,102.58125,left
12024709173639,-0.39720857,1.9800607,9.539586,0.0024434591,0.0042760535,-0.0029016077,97.21876,66.75,102.58125,left
12024730287077,-0.39720857,1.9800607,9.539586,0.0024434591,0.0042760535,-0.0029016077,94.443756,68.9625,101.325005,left
12024740287025,-0.39720857,1.9800607,9.539586,0.0024434591,0.0042760535,-0.0029016077,95.71875,68.11875,102.56251,left
12024733209421,-0.4211368,2.0135603,9.558728,0.02932151,0.005497783,-0.0016798781,95.71875,68.11875,102.56251,left
12024728246660,-0.4211368,2.0135603,9.558728,0.02932151,0.005497783,-0.0016798781,95.71875,68.11875,102.56251,left
12024750286973,-0.4211368,2.0135603,9.558728,0.02932151,0.005497783,-0.0016798781,96.3,68.043755,102.3375,left
12024760286921,-0.40677986,2.1284158,9.568299,0.02932151,0.005497783,-0.0016798781,94.33125,68.287506,99.61875,left
12024752283431,-0.40677986,2.1284158,9.568299,0.02932151,0.005497783,-0.0016798781,94.33125,68.287506,99.61875,left
12024747320671,-0.40677986,2.1284158,9.568299,0.02932151,0.007941242,-0.0016798781,94.33125,68.287506,99.61875,left
12024770286869,-0.40677986,2.1284158,9.568299,0.02932151,0.007941242,-0.0016798781,95.381256,69.525,100.50001,left
12024780286816,-0.40677986,2.1284158,9.568299,0.02932151,0.007941242,-0.0016798781,96.412506,69.7125,98.26875,left
12024771356400,-0.38763726,2.1427727,9.592228,0.008552107,0.005497783,0.00076358096,96.412506,69.7125,98.26875,left
12024766393639,-0.38763726,2.1427727,9.592228,0.008552107,0.005497783,0.00076358096,96.412506,69.7125,98.26875,left
12024790286764,-0.38763726,2.1427727,9.592228,0.008552107,0.005497783,0.00076358096,95.90625,70.162506,100.350006,left
12024800286712,-0.38763726,2.1427727,9.592228,0.008552107,0.005497783,0.00076358096,96.318756,69.95625,99.39375,left
12024790399421,-0.3493521,2.0662024,9.553943,0.008552107,0.005497783,0.00076358096,96.318756,69.95625,99.39375,left
12024810286660,-0.3493521,2.0662024,9.553943,-0.012217295,0.009162972,-0.0004581486,96.356255,70.2375,99.675,left
12024809473431,-0.39720857,2.070988,9.539586,-0.012217295,0.009162972,-0.0004581486,95.775,68.850006,101.475006,left
12024828546400,-0.4019942,1.9609182,9.520443,-0.0048869182,0.0067195124,-0.004123337,95.775,68.850006,101.475006,left
12024785436660,-0.4019942,1.9609182,9.520443,-0.0048869182,0.0067195124,-0.004123337,96.506256,67.387505,101.418755,left
12024850286452,-0.4019942,1.9609182,9.520443,-0.0048869182,0.0067195124,-0.004123337,96.43125,67.443756,104.606255,left
12024823583639,-0.4019942,1.9609182,9.520443,-0.0048869182,0.0067195124,-0.004123337,95.775,68.850006,101.475006,left
12024830286556,-0.39720857,2.070988,9.539586,-0.012217295,0.009162972,-0.0004581486,95.775,68.850006,101.475006,left
12024820286608,-0.4019942,1.9609182,9.520443,-0.0048869182,0.0067195124,-0.004123337,96.506256,67.387505,101.418755,left
12024847619421,-0.41156548,2.056631,9.568299,-0.0048869182,0.0067195124,-0.004123337,96.43125,67.443756,104.606255,left
12024804510671,-0.41156548,2.056631,9.568299,0.008552107,0.005497783,-0.0029016077,96.43125,67.443756,104.606255,left
12024840286504,-0.4019942,1.9609182,9.520443,-0.0048869182,0.0067195124,-0.004123337,96.43125,67.443756,104.606255,left
12024860286400,-0.41156548,2.056631,9.568299,0.008552107,0.005497783,-0.0029016077,97.2375,66.375,106.68751,left
12024842656660,-0.41156548,2.056631,9.568299,0.008552107,0.005497783,-0.0029016077,97.2375,66.375,106.68751,left
12024870286348,-0.41156548,2.056631,9.568299,0.008552107,0.005497783,-0.0029016077,96.75001,63.187504,107.08125,left
12024866693431,-0.4211368,2.0757737,9.563514,0.008552107,0.005497783,-0.0029016077,96.75001,63.187504,107.08125,left
12024861730671,-0.4211368,2.0757737,9.563514,0.0024434591,0.0030543238,-0.005345067,96.75001,63.187504,107.08125,left
12024880286296,-0.4211368,2.0757737,9.563514,0.0024434591,0.0030543238,-0.005345067,97.12501,65.71875,103.68751,left
12024890286244,-0.4211368,2.0757737,9.563514,0.0024434591,0.0030543238,-0.005345067,99.225006,67.275,103.05,left
12024885766400,-0.40677986,1.9513469,9.558728,0.0024434591,0.0030543238,-0.005345067,99.225006,67.275,103.05,left
12024880803639,-0.40677986,1.9513469,9.558728,0.014660755,0.0042760535,-0.011453714,99.225006,67.275,103.05,left
12024900286191,-0.40677986,1.9513469,9.558728,0.014660755,0.0042760535,-0.011453714,96.39375,67.481255,102.693756,left
12024910286139,-0.40677986,1.9513469,9.558728,0.014660755,0.0042760535,-0.011453714,96.09376,66.01875,103.537506,left
12024904809421,-0.41635114,2.0422742,9.587442,0.02687805,0.005497783,-0.018784093,96.09376,66.01875,103.537506,left
12024899846660,-0.41635114,2.0422742,9.587442,0.02687805,0.005497783,-0.018784093,96.09376,66.01875,103.537506,left
12024920286087,-0.41635114,2.0422742,9.587442,0.02687805,0.005497783,-0.018784093,98.381256,69.15,103.05,left
12024930286035,-0.41635114,2.0422742,9.587442,0.02687805,0.005497783,-0.018784093,95.775,68.850006,101.043755,left
12024923883431,-0.38763726,2.12363,9.616156,0.02687805,0.005497783,-0.018784093,95.775,68.850006,101.043755,left
12024918920671,-0.38763726,2.12363,9.616156,0.010995566,0.0030543238,-0.017562363,95.775,68.850006,101.043755,left
12024940285983,-0.38763726,2.12363,9.616156,0.010995566,0.0030543238,-0.017562363,96.58125,68.11875,100.78126,left
12024950285931,-0.38763726,2.12363,9.616156,0.010995566,0.0030543238,-0.017562363,96.412506,67.4625,104.025,left
12024942956400,-0.4019942,2.0614166,9.539586,0.010995566,0.0030543238,-0.017562363,96.412506,67.4625,104.025,left
12024937993639,-0.4019942,2.0614166,9.539586,-0.014660755,-0.0030543238,-0.012675445,96.412506,67.4625,104.025,left
12024960285879,-0.4019942,2.0614166,9.539586,-0.014660755,-0.0030543238,-0.012675445,97.03126,66.61875,101.4,left
12024970285827,-0.38763726,2.0279171,9.553943,-0.014660755,-0.0030543238,-0.012675445,96.28126,68.08125,100.74375,left
12024962030410,-0.38763726,2.0279171,9.553943,-0.013439025,-0.005497783,-0.011453714,96.28126,68.08125,100.74375,left
12024957067650,-0.38763726,2.0279171,9.553943,-0.013439025,-0.005497783,-0.011453714,96.28126,68.08125,100.74375,left
12024980285775,-0.38763726,2.0279171,9.553943,-0.013439025,-0.005497783,-0.011453714,96.8625,68.943756,103.200005,left
12024990285723,-0.38763726,2.0279171,9.553943,-0.013439025,-0.005497783,-0.011453714,95.2125,67.950005,100.631256,left
12024981103431,-0.38285163,1.8987048,9.482158,-0.013439025,-0.005497783,-0.011453714,95.2125,67.950005,100.631256,left
12024976140671,-0.38285163,1.8987048,9.482158,0.008552107,-0.007941242,-0.011453714,95.2125,67.950005,100.631256,left
12025000285671,-0.38285163,1.8987048,9.482158,0.008552107,-0.007941242,-0.011453714,96.4875,68.53125,101.15626,left
12025010285619,-0.38285163,1.8987048,9.482158,0.008552107,-0.007941242,-0.011453714,96.037506,68.625,100.668755,left
12025000177389,-0.38285163,2.070988,9.539586,0.040317077,-0.0042760535,-0.007788526,96.037506,68.625,100.668755,left
12024995214629,-0.38285163,2.070988,9.539586,0.040317077,-0.0042760535,-0.007788526,96.037506,68.625,100.668755,left
12025020285566,-0.38285163,2.070988,9.539586,0.040317077,-0.0042760535,-0.007788526,97.275,69.05625,100.6125,left
12025014257650,-0.38285163,2.070988,9.539586,0.032986697,-0.0042760535,-0.007788526,96.675,70.256256,100.725006,left
12025030285514,-0.38285163,2.070988,9.539586,0.032986697,-0.0042760535,-0.007788526,96.675,70.256256,100.725006,left
12025019220410,-0.40677986,2.12363,9.539586,0.032986697,-0.0042760535,-0.007788526,96.675,70.256256,100.725006,left
12025040285462,-0.40677986,2.12363,9.539586,0.032986697,-0.0042760535,-0.007788526,96.75001,67.950005,102.693756,left
12025033330671,-0.3924229,2.1427727,9.587442,0.017104214,-0.0018325944,-0.010231985,96.75001,67.950005,102.693756,left
12025038293431,-0.3924229,2.1427727,9.587442,0.017104214,-0.0018325944,-0.010231985,96.75001,67.950005,102.693756,left
12025050285410,-0.3924229,2.1427727,9.587442,0.017104214,-0.0018325944,-0.010231985,96.09376,66.037506,102.95625,left
12025060285358,-0.3924229,2.1427727,9.587442,0.017104214,-0.0018325944,-0.010231985,97.537506,67.2375,101.55,left
12025057367389,-0.41635114,2.0374885,9.549157,0.0012217296,-0.0030543238,-0.013897174,97.537506,67.2375,101.55,left
12025052404629,-0.41635114,2.0374885,9.549157,0.0012217296,-0.0030543238,-0.013897174,97.537506,67.2375,101.55,left
12025070285306,-0.41635114,2.0374885,9.549157,0.0012217296,-0.0030543238,-0.013897174,94.425,67.068756,103.96876,left
12025080285254,-0.41635114,2.0374885,9.549157,0.0012217296,-0.0030543238,-0.013897174,96.225006,68.925,101.08125,left
12025076440410,-0.42592242,2.0949163,9.597013,0.0012217296,-0.0030543238,-0.013897174,96.225006,68.925,101.08125,left
12025090285202,-0.42592242,2.0949163,9.597013,0.0012217296,0.0006108648,-0.011453714,95.3625,67.818756,100.8,left
12025100285150,-0.42592242,2.0949163,9.597013,0.0012217296,0.0006108648,-0.011453714,94.387505,68.71875,99.3,left
12025071477650,-0.42592242,2.0949163,9.597013,0.0012217296,0.0006108648,-0.011453714,94.387505,68.71875,99.3,left
12025095514421,-0.41635114,2.085345,9.568299,0.0012217296,0.0006108648,-0.011453714,94.387505,68.71875,99.3,left
12025090551660,-0.41635114,2.085345,9.568299,-0.0012217296,0.0006108648,-0.009010255,94.387505,68.71875,99.3,left
12025110285098,-0.41635114,2.085345,9.568299,-0.0012217296,0.0006108648,-0.009010255,96.543755,67.668755,101.83125,left
12025120285046,-0.41635114,2.085345,9.568299,-0.0012217296,0.0006108648,-0.009010255,96.61875,68.71875,99.693756,left
12025114587389,-0.42592242,2.0901306,9.553943,0.0097738365,0.0067195124,-0.010231985,96.61875,68.71875,99.693756,left
12025109624629,-0.42592242,2.0901306,9.553943,0.0097738365,0.0067195124,-0.010231985,96.61875,68.71875,99.693756,left
12025130284994,-0.42592242,2.0901306,9.553943,0.0097738365,0.0067195124,-0.010231985,95.775,69.168755,99.7125,left
12025140284941,-0.42592242,2.0901306,9.553943,0.0097738365,0.0067195124,-0.010231985,95.7375,68.887505,99.43125,left
12025133630410,-0.4354937,2.0614166,9.563514,0.012217295,0.005497783,-0.012675445,95.7375,68.887505,99.43125,left
12025128667650,-0.4354937,2.0614166,9.563514,0.012217295,0.005497783,-0.012675445,95.7375,68.887505,99.43125,left
12025150284889,-0.4354937,2.0614166,9.563514,0.012217295,0.005497783,-0.012675445,95.90625,70.481255,98.86875,left
12025160284837,-0.4354937,2.0614166,9.563514,0.012217295,0.005497783,-0.012675445,95.68125,69.58125,99.506256,left
12025147741660,-0.4019942,2.1571295,9.625728,0.0097738365,0.0042760535,-0.010231985,95.68125,69.58125,99.506256,left
12025152704421,-0.4019942,2.1571295,9.625728,0.0097738365,0.0042760535,-0.010231985,95.68125,69.58125,99.506256,left
12025170284785,-0.4019942,2.1571295,9.625728,0.0097738365,0.0042760535,-0.010231985,95.83125,69.450005,100.40626,left
12025180284733,-0.4019942,2.1571295,9.625728,0.0097738365,0.0042760535,-0.010231985,94.0875,70.106255,98.981255,left
12025171777389,-0.38763726,2.1714866,9.601799,0.0097738365,0.0042760535,-0.010231985,94.0875,70.106255,98.981255,left
12025166814629,-0.38763726,2.1714866,9.601799,-0.010995566,0.0030543238,-0.007788526,94.0875,70.106255,98.981255,left
12025190284681,-0.38763726,2.1714866,9.601799,-0.010995566,0.0030543238,-0.007788526,93.5625,70.89375,98.55,left
12025200284629,-0.38763726,2.1714866,9.601799,-0.010995566,0.0030543238,-0.007788526,95.231255,69.356255,100.93125,left
12025190851400,-0.37328035,2.0135603,9.5252285,-0.010995566,0.0030543238,-0.007788526,95.231255,69.356255,100.93125,left
12025185888639,-0.37328035,2.0135603,9.5252285,-0.018325943,0.0042760535,-0.012675445,95.231255,69.356255,100.93125,left
12025210284577,-0.37328035,2.0135603,9.5252285,-0.018325943,0.0042760535,-0.012675445,95.700005,70.05,97.725006,left
12025209924421,-0.3684947,2.0614166,9.515657,-0.018325943,0.0042760535,-0.012675445,95.700005,70.05,97.725006,left
12025204961660,-0.3684947,2.0614166,9.515657,-0.0061086477,0.009162972,-0.013897174,95.700005,70.05,97.725006,left
12025220284525,-0.3684947,2.0614166,9.515657,-0.0061086477,0.009162972,-0.013897174,95.0625,69.525,99.15,left
12025230284473,-0.3684947,2.0614166,9.515657,-0.0061086477,0.009162972,-0.013897174,95.100006,69.95625,98.68125,left
12025224035671,-0.3684947,2.0614166,9.515657,-0.0097738365,0.011606431,-0.011453714,95.100006,69.95625,98.68125,left
12025240284421,-0.3589234,2.0901306,9.520443,-0.0097738365,0.011606431,-0.011453714,96.600006,69.525,101.06251,left
12025228998431,-0.3589234,2.0901306,9.520443,-0.0097738365,0.011606431,-0.011453714,96.600006,69.525,101.06251,left
12025250284369,-0.3589234,2.0901306,9.520443,-0.0097738365,0.011606431,-0.011453714,97.50001,71.0625,100.74375,left
12025260284316,-0.38285163,1.9848464,9.530014,-0.012217295,0.010384701,-0.010231985,97.068756,68.137505,102.8625,left
12025248041400,-0.38285163,1.9848464,9.530014,-0.012217295,0.010384701,-0.010231985,97.068756,68.137505,102.8625,left
12025243078639,-0.38285163,1.9848464,9.530014,-0.012217295,0.010384701,-0.010231985,97.068756,68.137505,102.8625,left
12025270284264,-0.38285163,1.9848464,9.530014,-0.012217295,0.010384701,-0.010231985,95.287506,69.76875,101.325005,left
12025267114421,-0.39720857,2.003989,9.5348,-0.012217295,0.010384701,-0.010231985,95.287506,69.76875,101.325005,left
12025262151660,-0.39720857,2.003989,9.5348,-0.0036651888,0.0067195124,-0.0065667965,95.287506,69.76875,101.325005,left
12025290284160,-0.39720857,2.003989,9.5348,-0.0036651888,0.0067195124,-0.0065667965,94.8,70.068756,98.193756,left
12025280284212,-0.39720857,2.003989,9.5348,-0.0036651888,0.0067195124,-0.0065667965,94.8,70.068756,98.193756,left
12025286188431,-0.39720857,2.0422742,9.539586,0.0036651888,0.005497783,-0.004123337,94.8,70.068756,98.193756,left
12025281225671,-0.39720857,2.0422742,9.539586,0.0036651888,0.005497783,-0.004123337,97.2375,70.200005,99.918755,left
12025300284108,-0.39720857,2.0422742,9.539586,0.0036651888,0.005497783,-0.004123337,97.2375,70.200005,99.918755,left
12025310284056,-0.39720857,2.0422742,9.539586,0.0036651888,0.005497783,-0.004123337,95.325005,68.475006,103.21876,left
12025305261400,-0.44027936,2.0614166,9.5348,0.0061086477,0.0042760535,-0.004123337,95.325005,68.475006,103.21876,left
12025300298639,-0.44027936,2.0614166,9.5348,0.0061086477,0.0042760535,-0.004123337,95.325005,68.475006,103.21876,left
12025320284004,-0.44027936,2.0614166,9.5348,0.0061086477,0.0042760535,-0.004123337,96.80625,68.55,101.925,left
12025330283952,-0.44027936,2.0614166,9.5348,0.0061086477,0.0042760535,-0.004123337,96.037506,68.606255,100.950005,left
12025324335410,-0.4211368,1.9944177,9.530014,0.017104214,0.0018325944,-0.0065667965,96.037506,68.606255,100.950005,left
12025319372650,-0.4211368,1.9944177,9.530014,0.017104214,0.0018325944,-0.0065667965,96.037506,68.606255,100.950005,left
12025340283900,-0.4211368,1.9944177,9.530014,0.017104214,0.0018325944,-0.0065667965,94.425,69.0,99.56251,left
12025350283848,-0.4211368,1.9944177,9.530014,0.017104214,0.0018325944,-0.0065667965,95.53125,68.30625,99.318756,left
12025343408431,-0.43070808,2.181058,9.597013,0.017104214,0.0018325944,-0.0065667965,95.53125,68.30625,99.318756,left
12025338445671,-0.43070808,2.181058,9.597013,0.036651887,0.007941242,-0.009010255,95.53125,68.30625,99.318756,left
12025360283796,-0.43070808,2.181058,9.597013,0.036651887,0.007941242,-0.009010255,96.56251,69.24375,100.8,left
12025370283744,-0.43070808,2.181058,9.597013,0.036651887,0.007941242,-0.009010255,95.756256,68.86875,100.4625,left
12025362451400,-0.44985065,2.1906292,9.606585,0.036651887,0.007941242,-0.009010255,95.756256,68.86875,100.4625,left
12025357488639,-0.44985065,2.1906292,9.606585,0.017104214,0.010384701,-0.016340632,95.756256,68.86875,100.4625,left
12025380283691,-0.44985065,2.1906292,9.606585,0.017104214,0.010384701,-0.016340632,95.49375,69.1125,100.40626,left
12025390283639,-0.44985065,2.1906292,9.606585,0.017104214,0.010384701,-0.016340632,94.106255,67.387505,100.275,left
12025381525410,-0.40677986,2.1427727,9.601799,-0.0097738365,0.0140498895,-0.02489274,94.106255,67.387505,100.275,left
12025376562650,-0.40677986,2.1427727,9.601799,-0.0097738365,0.0140498895,-0.02489274,95.15625,69.1125,98.90626,left
12025400283587,-0.40677986,2.1427727,9.601799,-0.0097738365,0.0140498895,-0.02489274,95.15625,69.1125,98.90626,left
12025410283535,-0.43070808,2.099702,9.544372,-0.0097738365,0.0140498895,-0.02489274,95.68125,69.58125,100.2375,left
12025400598431,-0.43070808,2.099702,9.544372,-0.0097738365,0.0140498895,-0.02489274,95.68125,69.58125,100.2375,left
12025395635671,-0.43070808,2.099702,9.544372,-0.02443459,0.020158539,-0.02611447,95.68125,69.58125,100.2375,left
12025420283483,-0.43070808,2.099702,9.544372,-0.02443459,0.020158539,-0.02611447,96.525,69.3,98.756256,left
12025419671400,-0.44027936,2.0279171,9.515657,-0.014660755,0.022601997,-0.02489274,96.525,69.3,98.756256,left
12025430283431,-0.44027936,2.0279171,9.515657,-0.014660755,0.022601997,-0.02489274,95.26875,70.125,98.53126,left
12025440283379,-0.44027936,2.0279171,9.515657,-0.014660755,0.022601997,-0.02489274,94.93125,71.0625,98.4,left
12025414708639,-0.44027936,2.0279171,9.515657,-0.014660755,0.022601997,-0.02489274,94.93125,71.0625,98.4,left
12025433782650,-0.44027936,2.0614166,9.549157,-0.0012217296,0.021380268,-0.021227552,95.606255,70.443756,98.83125,left
12025450283327,-0.44027936,2.0614166,9.549157,-0.0012217296,0.021380268,-0.021227552,95.606255,70.443756,98.83125,left
12025438745410,-0.44027936,2.0614166,9.549157,-0.0012217296,0.021380268,-0.021227552,95.606255,70.443756,98.83125,left
12025460283275,-0.44027936,2.0614166,9.549157,-0.0012217296,0.021380268,-0.021227552,94.875,70.8,97.40626,left
12025457818431,-0.45942193,2.0518453,9.544372,-0.0012217296,0.021380268,-0.021227552,94.875,70.8,97.40626,left
12025452855671,-0.45942193,2.0518453,9.544372,-0.0036651888,0.017715078,-0.0151189035,94.875,70.8,97.40626,left
12025470283223,-0.45942193,2.0518453,9.544372,-0.0036651888,0.017715078,-0.0151189035,94.443756,69.28125,99.543755,left
12025480283171,-0.45942193,2.0518453,9.544372,-0.0036651888,0.017715078,-0.0151189035,95.5875,70.481255,97.2375,left
12025476861400,-0.44985065,2.070988,9.530014,-0.0036651888,0.017715078,-0.0151189035,95.5875,70.481255,97.2375,left
12025471898639,-0.44985065,2.070988,9.530014,-0.008552107,0.0140498895,-0.007788526,95.5875,70.481255,97.2375,left
12025490283119,-0.44985065,2.070988,9.530014,-0.008552107,0.0140498895,-0.007788526,96.918755,71.45625,99.46876,left
12025500283066,-0.44985065,2.070988,9.530014,-0.008552107,0.0140498895,-0.007788526,94.387505,68.71875,99.600006,left
12025495935410,-0.45942193,2.0422742,9.549157,-0.008552107,0.0140498895,-0.007788526,94.387505,68.71875,99.600006,left
12025490972650,-0.45942193,2.0422742,9.549157,-0.010995566,0.010384701,-0.0065667965,95.625,69.0,99.84376,left
12025510283014,-0.45942193,2.0422742,9.549157,-0.010995566,0.010384701,-0.0065667965,95.625,69.0,99.84376,left
12025520282962,-0.45942193,2.0422742,9.549157,-0.010995566,0.010384701,-0.0065667965,95.662506,69.61875,98.193756,left
12025515008431,-0.4546363,2.0662024,9.57787,-0.0024434591,0.010384701,-0.007788526,95.662506,69.61875,98.193756,left
12025510045671,-0.4546363,2.0662024,9.57787,-0.0024434591,0.010384701,-0.007788526,95.662506,69.61875,98.193756,left
12025530282910,-0.4546363,2.0662024,9.57787,-0.0024434591,0.010384701,-0.007788526,94.125,67.856255,98.775,left
12025540282858,-0.4354937,2.0901306,9.553943,-0.0024434591,0.010384701,-0.007788526,96.600006,70.012505,98.700005,left
12025529119629,-0.4354937,2.0901306,9.553943,-0.008552107,0.009162972,-0.010231985,96.600006,70.012505,98.700005,left
12025534082389,-0.4354937,2.0901306,9.553943,-0.0024434591,0.010384701,-0.007788526,96.600006,70.012505,98.700005,left
12025553155410,-0.44985065,2.0279171,9.506086,-0.008552107,0.009162972,-0.010231985,96.600006,70.012505,98.700005,left
12025548192650,-0.44985065,2.0279171,9.506086,-0.014660755,0.010384701,-0.012675445,96.600006,70.012505,98.700005,left
12025550282806,-0.44985065,2.0279171,9.506086,-0.014660755,0.010384701,-0.012675445,95.49375,69.450005,98.62501,left
12025560282754,-0.44985065,2.0279171,9.506086,-0.014660755,0.010384701,-0.012675445,93.693756,69.675,97.0875,left
12025570282702,-0.44985065,2.0279171,9.506086,-0.014660755,0.010384701,-0.012675445,93.693756,69.675,97.0875,left
12025572229421,-0.4642076,2.0231316,9.5348,-0.014660755,0.010384701,-0.012675445,93.693756,69.675,97.0875,left
12025567266660,-0.4642076,2.0231316,9.5348,-0.0073303776,0.009162972,-0.013897174,95.850006,71.325005,98.34376,left
12025580282650,-0.4642076,2.0231316,9.5348,-0.0073303776,0.009162972,-0.013897174,95.850006,71.325005,98.34376,left
12025590282598,-0.4642076,2.0231316,9.5348,-0.0073303776,0.009162972,-0.013897174,95.418755,68.4,100.4625,left
12025600282546,-0.44506502,2.0470598,9.582657,-0.0073303776,0.009162972,-0.013897174,95.418755,68.4,100.4625,left
12025591272389,-0.44506502,2.0470598,9.582657,-0.0073303776,0.009162972,-0.013897174,95.418755,68.4,100.4625,left
12025586309629,-0.44506502,2.0470598,9.582657,0.0097738365,0.007941242,-0.0151189035,95.418755,68.4,100.4625,left
12025610282494,-0.44506502,2.0470598,9.582657,0.0097738365,0.007941242,-0.0151189035,96.37501,70.51875,99.93751,left
12025610345410,-0.44506502,2.1140587,9.57787,0.0048869182,0.005497783,-0.013897174,96.37501,70.51875,99.93751,left
12025605382650,-0.44506502,2.1140587,9.57787,0.0048869182,0.005497783,-0.013897174,96.37501,70.51875,99.93751,left
12025620282441,-0.44506502,2.1140587,9.57787,0.0048869182,0.005497783,-0.013897174,97.387505,68.8125,99.4875,left
12025630282389,-0.44506502,2.1140587,9.57787,0.0048869182,0.005497783,-0.013897174,95.850006,69.9,99.356255,left
12025624456660,-0.4546363,2.0518453,9.5348,-0.0048869182,0.005497783,-0.011453714,96.76875,69.693756,101.2125,left
12025640282337,-0.4546363,2.0518453,9.5348,-0.0048869182,0.005497783,-0.011453714,96.76875,69.693756,101.2125,left
12025629419421,-0.4546363,2.0518453,9.5348,-0.0048869182,0.005497783,-0.011453714,96.76875,69.693756,101.2125,left
12025650282285,-0.4546363,2.0518453,9.5348,-0.0048869182,0.005497783,-0.011453714,96.84376,69.318756,99.525,left
12025643529629,-0.4546363,2.0518453,9.5348,-0.0036651888,0.0030543238,-0.0065667965,96.84376,69.318756,99.525,left
12025660282233,-0.4546363,2.0518453,9.5348,-0.0036651888,0.0030543238,-0.0065667965,95.475006,69.46875,97.31251,left
12025648492389,-0.45942193,2.0422742,9.530014,-0.0036651888,0.0030543238,-0.0065667965,95.475006,69.46875,97.31251,left
12025670282181,-0.45942193,2.0422742,9.530014,-0.0036651888,0.0030543238,-0.0065667965,95.231255,70.950005,99.61875,left
12025667566400,-0.44506502,2.0901306,9.558728,-0.0036651888,0.0030543238,-0.0065667965,95.231255,70.950005,99.61875,left
12025662603639,-0.44506502,2.0901306,9.558728,0.0,0.0018325944,-0.007788526,95.231255,70.950005,99.61875,left
12025680282129,-0.44506502,2.0901306,9.558728,0.0,0.0018325944,-0.007788526,95.26875,70.125,98.83125,left
12025690282077,-0.44506502,2.0901306,9.558728,0.0,0.0018325944,-0.007788526,95.756256,69.20625,98.100006,left
12025686639421,-0.44985065,2.12363,9.568299,0.0,0.0018325944,-0.007788526,95.756256,69.20625,98.100006,left
12025681676660,-0.44985065,2.12363,9.568299,-0.0097738365,0.0018325944,-0.009010255,95.981255,71.2125,97.93125,left
12025700282025,-0.44985065,2.12363,9.568299,-0.0097738365,0.0018325944,-0.009010255,95.981255,71.2125,97.93125,left
12025710281973,-0.44985065,2.12363,9.568299,-0.0097738365,0.0018325944,-0.009010255,96.43125,70.950005,99.600006,left
12025705682389,-0.4546363,2.0231316,9.539586,-0.0097738365,0.0018325944,-0.009010255,96.43125,70.950005,99.600006,left
12025700719629,-0.4546363,2.0231316,9.539586,-0.018325943,0.0030543238,-0.010231985,96.43125,70.950005,99.600006,left
12025720281921,-0.4546363,2.0231316,9.539586,-0.018325943,0.0030543238,-0.010231985,94.78125,71.2125,97.50001,left
12025730281869,-0.4546363,2.0231316,9.539586,-0.018325943,0.0030543238,-0.010231985,94.78125,71.2125,97.50001,left
12025719793639,-0.4546363,2.0231316,9.539586,-0.012217295,0.0042760535,-0.007788526,94.78125,71.2125,97.50001,left
12025724756400,-0.45942193,2.056631,9.549157,-0.012217295,0.0042760535,-0.007788526,94.78125,71.2125,97.50001,left
12025740281816,-0.45942193,2.056631,9.549157,-0.012217295,0.0042760535,-0.007788526,96.24375,69.543755,98.700005,left
12025750281764,-0.45942193,2.056631,9.549157,-0.012217295,0.0042760535,-0.007788526,95.5875,70.125,99.881256,left
12025738866660,-0.44506502,2.0087745,9.539586,0.0012217296,0.0018325944,-0.0065667965,95.5875,70.125,99.881256,left
12025743829421,-0.44506502,2.0087745,9.539586,0.0012217296,0.0018325944,-0.0065667965,95.5875,70.125,99.881256,left
12025760281712,-0.44506502,2.0087745,9.539586,0.0012217296,0.0018325944,-0.0065667965,96.24375,69.225006,99.75001,left
12025770281660,-0.44506502,2.0087745,9.539586,0.0012217296,0.0018325944,-0.0065667965,96.46876,70.14375,98.53126,left
12025757940671,-0.44985065,2.032703,9.5348,0.0061086477,-0.0006108648,-0.0016798781,96.46876,70.14375,98.53126,left
12025762903431,-0.44985065,2.032703,9.5348,0.0061086477,-0.0006108648,-0.0016798781,96.46876,70.14375,98.53126,left
12025780281608,-0.44985065,2.032703,9.5348,0.0061086477,-0.0006108648,-0.0016798781,95.71875,70.012505,99.46876,left
12025790281556,-0.47377887,2.070988,9.544372,0.0073303776,0.0006108648,-0.0004581486,95.662506,69.61875,98.193756,left
12025781976400,-0.47377887,2.070988,9.544372,0.0073303776,0.0006108648,-0.0004581486,95.662506,69.61875,98.193756,left
12025777013639,-0.47377887,2.070988,9.544372,0.0073303776,0.0006108648,-0.0004581486,95.662506,69.61875,98.193756,left
12025800281504,-0.47377887,2.070988,9.544372,0.0073303776,0.0006108648,-0.0004581486,96.05625,69.09375,98.86875,left
12025801050410,-0.5024927,2.1619153,9.592228,-0.0073303776,0.0018325944,0.00076358096,96.24375,69.225006,100.481255,left
12025796087650,-0.5024927,2.1619153,9.592228,-0.0073303776,0.0018325944,0.00076358096,96.24375,69.225006,100.481255,left
12025810281452,-0.5024927,2.1619153,9.592228,0.0073303776,0.0006108648,-0.0004581486,96.24375,69.225006,100.481255,left
12025820281400,-0.5024927,2.1619153,9.592228,-0.0073303776,0.0018325944,0.00076358096,94.875,70.8,97.40626,left
12025830281348,-0.5024927,2.1619153,9.592228,-0.0073303776,0.0018325944,0.00076358096,96.09376,69.375,98.850006,left
12025820123431,-0.51206404,2.0231316,9.568299,-0.0073303776,0.0018325944,0.00076358096,96.09376,69.375,98.850006,left
12025815160671,-0.51206404,2.0231316,9.568299,-0.02443459,-0.0042760535,0.00076358096,96.09376,69.375,98.850006,left
12025840281296,-0.51206404,2.0231316,9.568299,-0.02443459,-0.0042760535,0.00076358096,94.0875,68.981255,98.512505,left
12025834203639,-0.51206404,2.0231316,9.568299,-0.0048869182,-0.011606431,0.0056504994,94.0875,68.981255,98.512505,left
12025850281244,-0.51206404,2.0231316,9.568299,-0.0048869182,-0.011606431,0.0056504994,95.49375,70.55625,99.675,left
12025839166400,-0.5024927,1.9561325,9.530014,-0.0048869182,-0.011606431,0.0056504994,95.49375,70.55625,99.675,left
12025860281191,-0.5024927,1.9561325,9.530014,-0.0048869182,-0.011606431,0.0056504994,96.37501,70.21875,100.9875,left
12025853277650,-0.5168497,2.1284158,9.620942,0.0048869182,-0.016493348,0.016646065,96.506256,68.981255,99.525,left
12025870281139,-0.5168497,2.1284158,9.620942,0.0048869182,-0.016493348,0.016646065,96.506256,68.981255,99.525,left
12025858240410,-0.5168497,2.1284158,9.620942,0.0048869182,-0.016493348,0.016646065,96.506256,68.981255,99.525,left
12025880281087,-0.5168497,2.1284158,9.620942,0.0048869182,-0.016493348,0.016646065,95.30625,68.981255,98.793755,left
12025872350671,-0.6269195,2.382055,9.826724,-0.02687805,-0.029932374,0.022754714,95.887505,70.200005,98.887505,left
12025890281035,-0.6269195,2.382055,9.826724,-0.02687805,-0.029932374,0.022754714,95.887505,70.200005,98.887505,left
12025877313431,-0.6269195,2.382055,9.826724,-0.02687805,-0.029932374,0.022754714,95.887505,70.200005,98.887505,left
12025900280983,-0.6269195,2.382055,9.826724,-0.02687805,-0.029932374,0.022754714,95.8125,69.450005,99.975006,left
12025896387389,-0.74177504,1.9992033,9.649655,-0.02687805,-0.029932374,0.022754714,95.8125,69.450005,99.975006,left
12025891424629,-0.74177504,1.9992033,9.649655,-0.100181825,-0.06291907,0.026419902,95.8125,69.450005,99.975006,left
12025920280879,-0.74177504,1.9992033,9.649655,-0.100181825,-0.06291907,0.026419902,97.293755,66.037506,102.95625,left
12025910280931,-0.74177504,1.9992033,9.649655,-0.100181825,-0.06291907,0.026419902,97.293755,66.037506,102.95625,left
12025915460410,-0.72263247,1.975275,9.515657,-0.10384701,-0.08613193,0.044745844,97.293755,66.037506,102.95625,left
12025910497650,-0.72263247,1.975275,9.515657,-0.10384701,-0.08613193,0.044745844,97.293755,66.037506,102.95625,left
12025930280827,-0.72263247,1.975275,9.515657,-0.10384701,-0.08613193,0.044745844,95.625,67.40625,102.18751,left
12025934534421,-0.5694918,2.0374885,9.582657,-0.10384701,-0.08613193,0.044745844,95.625,67.40625,102.18751,left
12025929571660,-0.5694918,2.0374885,9.582657,-0.080634154,-0.109344795,0.066736974,96.543755,68.943756,101.55,left
12025950280723,-0.5694918,2.0374885,9.582657,-0.080634154,-0.109344795,0.066736974,96.543755,68.943756,101.55,left
12025940280775,-0.5694918,2.0374885,9.582657,-0.080634154,-0.109344795,0.066736974,96.543755,68.943756,101.55,left
12025953577389,-0.5407779,2.1427727,9.616156,-0.080634154,-0.109344795,0.066736974,96.543755,68.943756,101.55,left
12025948614629,-0.5407779,2.1427727,9.616156,-0.092851445,-0.116675176,0.07284562,96.693756,69.1125,100.9875,left
12025960280671,-0.5407779,2.1427727,9.616156,-0.092851445,-0.116675176,0.07284562,97.275,67.162506,103.55625,left
12025970280619,-0.5407779,2.1427727,9.616156,-0.092851445,-0.116675176,0.07284562,97.275,67.162506,103.55625,left
12025980280566,-0.5407779,2.1427727,9.616156,-0.092851445,-0.116675176,0.07284562,98.606255,68.793755,101.08125,left
12025967687650,-0.33499518,2.056631,9.539586,-0.106290475,-0.11911863,0.06551525,98.606255,68.793755,101.08125,left
12025972650410,-0.33499518,2.056631,9.539586,-0.106290475,-0.11911863,0.06551525,98.606255,68.793755,101.08125,left
12025990280514,-0.33499518,2.056631,9.539586,-0.106290475,-0.11911863,0.06551525,95.175,68.756256,102.00001,left
12026000280462,-0.29671,2.1140587,9.635299,-0.106290475,-0.11911863,0.06551525,94.875,67.4625,101.662506,left
12025991723431,-0.29671,2.1140587,9.635299,-0.13316852,-0.10079269,0.066736974,94.875,67.4625,101.662506,left
12025986760671,-0.29671,2.1140587,9.635299,-0.13316852,-0.10079269,0.066736974,94.875,67.4625,101.662506,left
12026010280410,-0.29671,2.1140587,9.635299,-0.13316852,-0.10079269,0.066736974,94.6125,67.70625,101.756256,left
12026020280358,-0.18664017,2.085345,9.716655,-0.13316852,-0.10079269,0.066736974,95.34375,70.8375,98.775,left
12026010797389,-0.18664017,2.085345,9.716655,-0.20158538,-0.09224058,0.067958705,95.34375,70.8375,98.775,left
12026005834629,-0.18664017,2.085345,9.716655,-0.20158538,-0.09224058,0.067958705,95.34375,70.8375,98.775,left
12026030280306,-0.18664017,2.085345,9.716655,-0.20158538,-0.09224058,0.067958705,95.45625,68.83125,100.425,left
12026029870410,-0.28235307,1.869991,9.707084,-0.2614501,-0.09346231,0.075289086,94.8,70.068756,98.193756,left
12026040280254,-0.28235307,1.869991,9.707084,-0.2614501,-0.09346231,0.075289086,94.8,70.068756,98.193756,left
12026024907650,-0.28235307,1.869991,9.707084,-0.2614501,-0.09346231,0.075289086,94.8,70.068756,98.193756,left
12026050280202,-0.28235307,1.869991,9.707084,-0.2614501,-0.09346231,0.075289086,94.93125,70.74375,100.4625,left
12026043981660,-0.3924229,1.6211374,9.798011,-0.28344125,-0.10445788,0.08261946,95.625,69.318756,98.2125,left
12026060280150,-0.3924229,1.6211374,9.798011,-0.28344125,-0.10445788,0.08261946,95.625,69.318756,98.2125,left
12026048944421,-0.3924229,1.6211374,9.798011,-0.28344125,-0.10445788,0.08261946,95.625,69.318756,98.2125,left
12026070280098,-0.3924229,1.6211374,9.798011,-0.28344125,-0.10445788,0.08261946,94.40625,71.700005,98.568756,left
12026067987389,-0.5694918,1.5876378,9.735797,-0.30054548,-0.13988803,0.08872811,94.40625,71.700005,98.568756,left
12026080280046,-0.5694918,1.5876378,9.735797,-0.30054548,-0.13988803,0.08872811,96.28126,71.08125,99.131256,left
12026063024629,-0.5694918,1.5876378,9.735797,-0.30054548,-0.13988803,0.08872811,96.28126,71.08125,99.131256,left
12026090279994,-0.5694918,1.5876378,9.735797,-0.30054548,-0.13988803,0.08872811,96.61875,71.418755,99.15,left
12026087060410,-0.4977071,1.8029919,9.812367,-0.3188714,-0.18997894,0.09728022,96.61875,71.418755,99.15,left
12026082097650,-0.4977071,1.8029919,9.812367,-0.3188714,-0.18997894,0.09728022,96.61875,71.418755,99.15,left
12026100279941,-0.4977071,1.8029919,9.812367,-0.3188714,-0.18997894,0.09728022,94.51875,69.693756,100.51875,left
12026110279889,-0.4977071,1.8029919,9.812367,-0.3188714,-0.18997894,0.09728022,93.84375,72.037506,99.05625,left
12026106134421,-0.42592242,1.9513469,9.841082,-0.39584038,-0.23029602,0.09728022,95.287506,71.68125,98.53126,left
12026120279837,-0.42592242,1.9513469,9.841082,-0.39584038,-0.23029602,0.09728022,95.287506,71.68125,98.53126,left
12026101171660,-0.42592242,1.9513469,9.841082,-0.39584038,-0.23029602,0.09728022,95.287506,71.68125,98.53126,left
12026130279785,-0.42592242,1.9513469,9.841082,-0.39584038,-0.23029602,0.09728022,93.600006,72.43125,99.28126,left
12026125207389,-0.5072784,1.9848464,10.290932,-0.39584038,-0.23029602,0.09728022,93.600006,72.43125,99.28126,left
12026120244629,-0.5072784,1.9848464,10.290932,-0.5338958,-0.27183482,0.10827578,93.600006,72.43125,99.28126,left
12026140279733,-0.5072784,1.9848464,10.290932,-0.5338958,-0.27183482,0.10827578,94.78125,73.55625,100.6125,left
12026150279681,-0.5072784,1.9848464,10.290932,-0.5338958,-0.27183482,0.10827578,95.25,73.762505,99.918755,left
12026144281400,-0.8135597,1.2287145,10.118649,-0.5338958,-0.27183482,0.10827578,95.25,73.762505,99.918755,left
12026139318639,-0.8135597,1.2287145,10.118649,-0.7990111,-0.3488038,0.1339321,95.25,73.762505,99.918755,left
12026160279629,-0.8135597,1.2287145,10.118649,-0.7990111,-0.3488038,0.1339321,94.70625,73.162506,98.025,left
12026163354421,-0.41156548,0.8219346,9.472587,-0.7990111,-0.3488038,0.1339321,95.175,73.05,99.975006,left
12026170279577,-0.41156548,0.8219346,9.472587,-0.7990111,-0.3488038,0.1339321,95.175,73.05,99.975006,left
12026180279525,-0.41156548,0.8219346,9.472587,-0.95172733,-0.39400777,0.12904519,93.75,73.70625,100.200005,left
12026158391660,-0.41156548,0.8219346,9.472587,-0.95172733,-0.39400777,0.12904519,93.75,73.70625,100.200005,left
12026190279473,-0.41156548,0.8219346,9.472587,-0.95172733,-0.39400777,0.12904519,94.93125,74.850006,100.21876,left
12026182397389,-0.2105684,0.78364944,9.702297,-0.81122845,-0.37323838,0.1754709,94.93125,74.850006,100.21876,left
12026177434629,-0.2105684,0.78364944,9.702297,-0.81122845,-0.37323838,0.1754709,94.93125,74.850006,100.21876,left
12026200279421,-0.2105684,0.78364944,9.702297,-0.81122845,-0.37323838,0.1754709,92.231255,74.943756,99.01875,left
12026210279369,-0.37806597,0.58265233,10.386645,-0.81122845,-0.37323838,0.1754709,93.1875,73.74375,101.287506,left
12026201471400,-0.37806597,0.58265233,10.386645,-0.81122845,-0.37323838,0.1754709,93.1875,73.74375,101.287506,left
12026220279316,-0.37806597,0.58265233,10.386645,-0.72570735,-0.36102107,0.1669188,92.418755,75.24375,99.3,left
12026196508639,-0.37806597,0.58265233,10.386645,-0.72570735,-0.36102107,0.1669188,92.418755,75.24375,99.3,left
12026220544421,-0.44985065,0.20458634,10.592427,-0.69516414,-0.42821622,0.13148865,93.3375,75.037506,101.606255,left
12026215581660,-0.44985065,0.20458634,10.592427,-0.69516414,-0.42821622,0.13148865,93.3375,75.037506,101.606255,left
12026230279264,-0.44985065,0.20458634,10.592427,-0.69516414,-0.42821622,0.13148865,93.3375,75.037506,101.606255,left
12026240279212,-0.44985065,0.20458634,10.592427,-0.69516414,-0.42821622,0.13148865,93.24375,77.512505,97.87501,left
12026239618431,-0.22492532,-0.19740787,10.879566,-0.69516414,-0.42821622,0.13148865,93.24375,77.512505,97.87501,left
12026234655671,-0.22492532,-0.19740787,10.879566,-0.6035344,-0.5222894,0.10827578,93.24375,77.512505,97.87501,left
12026250279160,-0.22492532,-0.19740787,10.879566,-0.6035344,-0.5222894,0.10827578,92.006256,76.725006,100.425,left
12026260279108,-0.22492532,-0.19740787,10.879566,-0.6035344,-0.5222894,0.10827578,90.075005,74.381256,99.262505,left
12026258691400,-0.22492532,-0.12562318,11.606984,-0.6035344,-0.5222894,0.10827578,90.075005,74.381256,99.262505,left
12026253728639,-0.22492532,-0.12562318,11.606984,-0.44837475,-0.6236929,0.07895427,90.075005,74.381256,99.262505,left
12026270279056,-0.22492532,-0.12562318,11.606984,-0.44837475,-0.6236929,0.07895427,90.075005,74.381256,99.262505,left
12026280279004,-0.22492532,-0.12562318,11.606984,-0.44837475,-0.6236929,0.07895427,90.76875,76.443756,99.731255,left
12026277765410,-0.29192436,0.5347959,11.884552,-0.44837475,-0.6236929,0.07895427,90.76875,76.443756,99.731255,left
12026272802650,-0.29192436,0.5347959,11.884552,-0.4007273,-0.77396566,0.10461059,90.76875,76.443756,99.731255,left
12026290278952,-0.29192436,0.5347959,11.884552,-0.4007273,-0.77396566,0.10461059,90.76875,76.443756,99.731255,left
12026300278900,-0.13878371,0.7262217,11.6644125,-0.4007273,-0.77396566,0.10461059,91.59375,77.100006,99.9,left
12026296808431,-0.13878371,0.7262217,11.6644125,-0.4007273,-0.77396566,0.10461059,91.59375,77.100006,99.9,left
12026291845671,-0.13878371,0.7262217,11.6644125,-0.55100006,-0.980438,0.170584,91.59375,77.100006,99.9,left
12026310278848,-0.13878371,0.7262217,11.6644125,-0.55100006,-0.980438,0.170584,92.2125,78.75,99.225006,left
12026320278796,-0.13878371,0.7262217,11.6644125,-0.55100006,-0.980438,0.170584,90.262505,77.193756,100.4625,left
12026315881400,0.29192436,0.48215377,11.520843,-0.7538071,-1.2089014,0.23167047,90.262505,77.193756,100.4625,left
12026310918639,0.29192436,0.48215377,11.520843,-0.7538071,-1.2089014,0.23167047,90.262505,77.193756,100.4625,left
12026330278744,0.29192436,0.48215377,11.520843,-0.7538071,-1.2089014,0.23167047,89.49375,78.225006,101.15626,left
12026340278691,0.29192436,0.48215377,11.520843,-0.7538071,-1.2089014,0.23167047,88.65,78.99375,99.80625,left
12026334955410,0.4354937,0.10887343,11.841481,-0.7538071,-1.2089014,0.23167047,88.65,78.99375,99.80625,left
12026329992650,0.4354937,0.10887343,11.841481,-0.8600976,-1.4068216,0.28176138,88.65,78.99375,99.80625,left
12026350278639,0.4354937,0.10887343,11.841481,-0.8600976,-1.4068216,0.28176138,90.01875,78.99375,101.137505,left
12026360278587,0.4354937,0.10887343,11.841481,-0.8600976,-1.4068216,0.28176138,88.162506,79.912506,99.65626,left
12026349065671,0.22013968,-0.6472585,11.994621,-1.0238093,-1.608407,0.28420484,88.162506,79.912506,99.65626,left
12026370278535,0.22013968,-0.6472585,11.994621,-1.0238093,-1.608407,0.28420484,87.693756,79.55625,100.668755,left
12026354028431,0.22013968,-0.6472585,11.994621,-1.0238093,-1.608407,0.28420484,87.693756,79.55625,100.668755,left
12026380278483,0.22013968,-0.6472585,11.994621,-1.0238093,-1.608407,0.28420484,85.4625,80.45625,103.668755,left
12026373102389,0.37806597,-1.4464613,11.774482,-1.0238093,-1.608407,0.28420484,85.4625,80.45625,103.668755,left
12026368139629,0.37806597,-1.4464613,11.774482,-1.2400556,-1.8759657,0.23044874,85.89375,80.700005,102.09376,left
12026390278431,0.37806597,-1.4464613,11.774482,-1.2400556,-1.8759657,0.23044874,85.89375,80.700005,102.09376,left
12026400278379,0.37806597,-1.4464613,11.774482,-1.2400556,-1.8759657,0.23044874,84.5625,82.0875,102.09376,left
12026387212650,1.1150553,-2.4131618,11.12842,-1.2363904,-2.1520767,0.21823144,84.5625,82.0875,102.09376,left
12026392175410,1.1150553,-2.4131618,11.12842,-1.2363904,-2.1520767,0.21823144,84.5625,82.0875,102.09376,left
12026410278327,1.1150553,-2.4131618,11.12842,-1.2363904,-2.1520767,0.21823144,84.4875,81.356255,102.450005,left
12026406255671,2.5603201,-2.6333013,9.726226,-1.0409136,-2.3255622,0.0923933,82.55625,82.481255,104.15626,left
12026411218431,2.5603201,-2.6333013,9.726226,-1.0409136,-2.3255622,0.0923933,82.55625,82.481255,104.15626,left
12026420278275,2.5603201,-2.6333013,9.726226,-1.0409136,-2.3255622,0.0923933,82.55625,82.481255,104.15626,left
12026430278223,2.5603201,-2.6333013,9.726226,-1.0409136,-2.3255622,0.0923933,83.0625,83.287506,102.24375,left
12026430292389,3.2925239,-3.0448668,9.285947,-1.0409136,-2.3255622,0.0923933,81.46875,83.45625,104.3625,left
12026440278171,3.2925239,-3.0448668,9.285947,-1.0409136,-2.3255622,0.0923933,81.46875,83.45625,104.3625,left
12026425329629,3.2925239,-3.0448668,9.285947,-0.8173371,-2.4110832,-0.033444848,81.46875,83.45625,104.3625,left
12026450278119,3.2925239,-3.0448668,9.285947,-0.8173371,-2.4110832,-0.033444848,78.84375,82.6875,104.568756,left
12026444402650,3.2925239,-3.0448668,9.285947,-0.6817251,-2.4318526,-0.23380849,78.84375,82.6875,104.568756,left
12026449365410,4.072584,-2.609373,8.036893,-0.6817251,-2.4318526,-0.23380849,79.537506,84.9,104.43751,left
12026460278066,4.072584,-2.609373,8.036893,-0.6817251,-2.4318526,-0.23380849,79.537506,84.9,104.43751,left
12026470278014,4.072584,-2.609373,8.036893,-0.6817251,-2.4318526,-0.23380849,79.537506,84.9,104.43751,left
12026468439421,4.8622155,-2.1595225,6.7878394,-0.3933969,-2.3829834,-0.31932956,79.537506,84.9,104.43751,left
12026463476660,4.8622155,-2.1595225,6.7878394,-0.3933969,-2.3829834,-0.31932956,79.537506,84.9,104.43751,left
12026480277962,4.8622155,-2.1595225,6.7878394,-0.3933969,-2.3829834,-0.31932956,77.55,82.93125,105.7125,left
12026490277910,4.8622155,-2.1595225,6.7878394,-0.3933969,-2.3829834,-0.31932956,78.0,84.24375,106.21876,left
12026487512389,5.0823555,-1.9680966,6.1322064,-0.3933969,-2.3829834,-0.31932956,78.0,84.24375,106.21876,left
12026482549629,5.0823555,-1.9680966,6.1322064,-0.14172062,-2.2485933,-0.37797257,78.0,84.24375,106.21876,left
12026500277858,5.0823555,-1.9680966,6.1322064,-0.14172062,-2.2485933,-0.37797257,75.637505,82.762505,107.981255,left
12026510277806,5.0823555,-1.9680966,6.1322064,-0.14172062,-2.2485933,-0.37797257,74.943756,84.825005,106.818756,left
12026501623639,5.2689953,-0.9774681,5.175077,-0.13683371,-2.0787728,-0.47815442,74.943756,84.825005,106.818756,left
12026506586400,5.2689953,-0.9774681,5.175077,-0.13683371,-2.0787728,-0.47815442,74.943756,84.825005,106.818756,left
12026520277754,5.2689953,-0.9774681,5.175077,-0.13683371,-2.0787728,-0.47815442,76.14375,84.84375,106.51875,left
12026530277702,5.2689953,-0.9774681,5.175077,-0.13683371,-2.0787728,-0.47815442,73.856255,84.39375,107.175,left
12026520666660,5.2689953,-0.9774681,5.175077,-0.15271619,-1.8698571,-0.49403688,73.856255,84.39375,107.175,left
12026525629421,5.608776,-0.95832545,4.2131624,-0.15271619,-1.8698571,-0.49403688,73.856255,84.39375,107.175,left
12026550277598,5.608776,-0.95832545,4.2131624,-0.15271619,-1.8698571,-0.49403688,72.506256,84.20625,107.62501,left
12026540277650,5.608776,-0.95832545,4.2131624,-0.15271619,-1.8698571,-0.49403688,72.506256,84.20625,107.62501,left
12026544702389,6.2117677,-0.6999006,3.1316066,-0.16615522,-1.5570943,-0.5600103,72.506256,84.20625,107.62501,left
12026539739629,6.2117677,-0.6999006,3.1316066,-0.16615522,-1.5570943,-0.5600103,72.506256,84.20625,107.62501,left
12026560277546,6.2117677,-0.6999006,3.1316066,-0.16615522,-1.5570943,-0.5600103,71.30625,85.443756,108.525,left
12026570277494,6.2117677,-0.6999006,3.1316066,-0.16615522,-1.5570943,-0.5600103,69.61875,83.8125,108.05625,left
12026558812650,6.786045,-0.30269206,2.533401,-0.06597339,-1.1808016,-0.58200145,69.61875,83.8125,108.05625,left
12026563775410,6.786045,-0.30269206,2.533401,-0.06597339,-1.1808016,-0.58200145,69.61875,83.8125,108.05625,left
12026580277441,6.786045,-0.30269206,2.533401,-0.06597339,-1.1808016,-0.58200145,71.381256,82.9875,110.662506,left
12026590277389,6.786045,-0.30269206,2.533401,-0.06597339,-1.1808016,-0.58200145,70.2375,85.3125,108.412506,left
12026577886660,7.1162543,-0.32662028,2.0165513,0.0048869182,-0.799622,-0.6003274,70.2375,85.3125,108.412506,left
12026582849421,7.1162543,-0.32662028,2.0165513,0.0048869182,-0.799622,-0.6003274,70.2375,85.3125,108.412506,left
12026600277337,7.1162543,-0.32662028,2.0165513,0.0048869182,-0.799622,-0.6003274,70.950005,85.125,107.49375,left
12026610277285,7.164111,0.82672024,0.8775677,0.07574723,-0.3781253,-0.56367546,69.975006,82.70625,109.36875,left
12026601922389,7.164111,0.82672024,0.8775677,0.07574723,-0.3781253,-0.56367546,69.975006,82.70625,109.36875,left
12026596959629,7.164111,0.82672024,0.8775677,0.07574723,-0.3781253,-0.56367546,69.975006,82.70625,109.36875,left
12026620277233,7.164111,0.82672024,0.8775677,0.07574723,-0.3781253,-0.56367546,69.3375,83.756256,109.33125,left
12026630277181,7.164111,0.82672024,0.8775677,0.07574723,-0.3781253,-0.56367546,72.43125,83.45625,108.7125,left
12026620996400,7.1784678,3.7555351,-1.055833,0.112399116,0.12400555,-0.2545779,72.43125,83.45625,108.7125,left
12026616033639,7.1784678,3.7555351,-1.055833,0.112399116,0.12400555,-0.2545779,72.43125,83.45625,108.7125,left
12026640277129,7.1784678,3.7555351,-1.055833,0.112399116,0.12400555,-0.2545779,69.975006,84.131256,108.787506,left
12026640039421,7.4416785,5.770292,-3.1902308,-0.22968516,0.81061757,0.21090107,69.543755,83.100006,108.1125,left
12026635076660,7.4416785,5.770292,-3.1902308,-0.22968516,0.81061757,0.21090107,69.543755,83.100006,108.1125,left
12026650277077,7.4416785,5.770292,-3.1902308,-0.22968516,0.81061757,0.21090107,69.543755,83.100006,108.1125,left
12026660277025,7.4416785,5.770292,-3.1902308,-0.22968516,0.81061757,0.21090107,71.943756,84.5625,107.381256,left
12026654149629,6.541977,4.1718864,-2.4771698,-0.7354812,1.7550145,0.52977246,71.64375,83.08125,108.075005,left
12026670276973,6.541977,4.1718864,-2.4771698,-0.7354812,1.7550145,0.52977246,71.64375,83.08125,108.075005,left
12026659112389,6.541977,4.1718864,-2.4771698,-0.7354812,1.7550145,0.52977246,71.64375,83.08125,108.075005,left
12026680276921,6.541977,4.1718864,-2.4771698,-0.7354812,1.7550145,0.52977246,71.925,84.58125,106.350006,left
12026678186400,4.4985065,2.784049,0.69571316,-0.9786054,2.6713116,0.64094985,74.15625,85.856255,106.93125,left
12026673223639,4.4985065,2.784049,0.69571316,-0.9786054,2.6713116,0.64094985,74.15625,85.856255,106.93125,left
12026690276869,4.4985065,2.784049,0.69571316,-0.9786054,2.6713116,0.64094985,74.15625,85.856255,106.93125,left
12026700276816,4.4985065,2.784049,0.69571316,-0.9786054,2.6713116,0.64094985,74.887505,85.668755,106.59376,left
12026697259421,1.6462619,2.1667008,5.433502,-0.40439248,3.2699592,0.9182825,74.887505,85.668755,106.59376,left
12026692296660,1.6462619,2.1667008,5.433502,-0.40439248,3.2699592,0.9182825,74.887505,85.668755,106.59376,left
12026710276764,1.6462619,2.1667008,5.433502,-0.40439248,3.2699592,0.9182825,77.025,87.506256,106.21876,left
12026720276712,1.6462619,2.1667008,5.433502,-0.40439248,3.2699592,0.9182825,76.89375,86.53125,104.981255,left
12026716333431,-9.437292,-12.577872,54.338013,-0.2480111,3.2406375,1.0038035,76.89375,86.53125,104.981255,left
12026711370671,-9.437292,-12.577872,54.338013,-0.2480111,3.2406375,1.0038035,76.89375,86.53125,104.981255,left
12026730276660,-9.437292,-12.577872,54.338013,-0.2480111,3.2406375,1.0038035,79.55625,85.21875,103.387505,left
12026740276608,-9.437292,-12.577872,54.338013,-0.2480111,3.2406375,1.0038035,81.1125,88.200005,105.01875,left
12026735406400,-1.8329022,5.5310097,2.9066813,-3.9865036,-0.09957096,-0.7041744,81.1125,88.200005,105.01875,left
12026730443639,-1.8329022,5.5310097,2.9066813,-3.9865036,-0.09957096,-0.7041744,81.1125,88.200005,105.01875,left
12026750276556,-1.8329022,5.5310097,2.9066813,-3.9865036,-0.09957096,-0.7041744,80.381256,88.0875,106.40626,left
12026760276504,-1.8329022,5.5310097,2.9066813,-3.9865036,-0.09957096,-0.7041744,79.350006,88.2375,106.275,left
12026754449421,7.1545396,-7.442875,4.1318064,-0.06352994,-1.2040145,2.3758059,79.350006,88.2375,106.275,left
12026749486660,7.1545396,-7.442875,4.1318064,-0.06352994,-1.2040145,2.3758059,79.350006,88.2375,106.275,left
12026770276452,7.1545396,-7.442875,4.1318064,-0.06352994,-1.2040145,2.3758059,79.012505,87.9,106.55625,left
12026780276400,7.1545396,-7.442875,4.1318064,-0.06352994,-1.2040145,2.3758059,78.9375,87.1875,106.31251,left
12026773523431,2.4885356,-6.806384,14.3874445,0.9957096,-0.35857764,0.5371029,78.9375,87.1875,106.31251,left
12026768560671,2.4885356,-6.806384,14.3874445,0.9957096,-0.35857764,0.5371029,78.9375,87.1875,106.31251,left
12026790276348,2.4885356,-6.806384,14.3874445,0.9957096,-0.35857764,0.5371029,81.99375,88.18125,104.68125,left
12026800276296,2.4885356,-6.806384,14.3874445,0.9957096,-0.35857764,0.5371029,78.95625,87.4875,105.8625,left
12026792596400,-2.6608188,-6.99781,22.762323,0.8918626,-0.3414734,-1.1085669,78.95625,87.4875,105.8625,left
12026787633639,-2.6608188,-6.99781,22.762323,0.8918626,-0.3414734,-1.1085669,78.95625,87.4875,105.8625,left
12026810276244,-2.6608188,-6.99781,22.762323,0.8918626,-0.3414734,-1.1085669,75.975006,87.675,105.637505,left
12026811670410,1.5361922,-1.8867407,18.000607,0.8918626,-0.3414734,-1.1085669,78.24375,84.80625,107.49375,left
12026820276191,1.5361922,-1.8867407,18.000607,0.8918626,-0.3414734,-1.1085669,78.24375,84.80625,107.49375,left
12026806707650,1.5361922,-1.8867407,18.000607,0.06475167,-1.2870921,-0.59544045,76.74375,84.75,108.05625,left
12026830276139,1.5361922,-1.8867407,18.000607,0.06475167,-1.2870921,-0.59544045,76.8,85.012505,109.05,left
12026840276087,5.2307105,-2.14038,12.5019,0.06475167,-1.2870921,-0.59544045,76.8,85.012505,109.05,left
12026850276035,3.871587,-4.1647077,10.01815,-0.06963859,-2.3658793,-0.8617775,77.512505,85.78125,110.512505,left
12026844854629,3.871587,-4.1647077,10.01815,-0.06963859,-2.3658793,-0.8617775,77.512505,80.625,114.00001,left
12026860275983,3.871587,-4.1647077,10.01815,-0.06963859,-2.3658793,-0.8617775,74.30625,80.625,114.00001,left
12026849817389,3.871587,-4.1647077,10.01815,-0.06963859,-2.3658793,-0.8617775,74.30625,80.625,114.00001,left
12026830743431,5.2307105,-2.14038,12.5019,-0.30298892,-2.0299037,-0.8984294,76.8,85.012505,109.05,left
12026825780671,5.2307105,-2.14038,12.5019,-0.30298892,-2.0299037,-0.8984294,77.512505,85.78125,110.512505,left
12026870275931,3.871587,-4.1647077,10.01815,-0.06963859,-2.3658793,-0.8617775,74.756256,83.2125,114.225006,left
12026863897650,3.871587,-4.1647077,10.01815,0.654847,-2.4000878,-1.0206023,74.756256,83.2125,114.225006,left
12026880275879,3.871587,-4.1647077,10.01815,0.654847,-2.4000878,-1.0206023,74.568756,81.15,116.7375,left
12026868860410,3.9146578,-2.3748765,9.209376,0.654847,-2.4000878,-1.0206023,74.568756,81.15,116.7375,left
12026890275827,3.9146578,-2.3748765,9.209376,0.654847,-2.4000878,-1.0206023,74.5875,78.450005,118.012505,left
12026887933431,4.0869412,-0.5802595,8.34796,0.92362756,-2.497826,-0.9118684,74.5875,78.450005,118.012505,left
12026882970671,4.0869412,-0.5802595,8.34796,0.92362756,-2.497826,-0.9118684,73.3125,80.4,118.256256,left
12026900275775,4.0869412,-0.5802595,8.34796,0.92362756,-2.497826,-0.9118684,73.3125,80.4,118.256256,left
12026910275723,4.0869412,-0.5802595,8.34796,0.92362756,-2.497826,-0.9118684,70.36875,82.8,113.90626,left
12026907007389,4.5415773,-0.57547385,5.5675,0.92362756,-2.497826,-0.9118684,70.36875,82.8,113.90626,left
12026902044629,4.5415773,-0.57547385,5.5675,0.45570514,-2.646877,-0.92164224,70.4625,78.881256,118.51875,left
12026920275671,4.5415773,-0.57547385,5.5675,0.45570514,-2.646877,-0.92164224,70.4625,78.881256,118.51875,left
12026930275619,4.5415773,-0.57547385,5.5675,0.45570514,-2.646877,-0.92164224,69.28125,81.8625,117.225006,left
12026926080410,5.7379885,-0.613759,2.504687,0.21868959,-2.6529858,-0.8972076,69.28125,81.8625,117.225006,left
12026921117650,5.7379885,-0.613759,2.504687,0.21868959,-2.6529858,-0.8972076,69.28125,81.8625,117.225006,left
12026940275566,5.7379885,-0.613759,2.504687,0.21868959,-2.6529858,-0.8972076,68.08125,80.4375,117.225006,left
12026950275514,5.7379885,-0.613759,2.504687,0.21868959,-2.6529858,-0.8972076,68.53125,81.76875,117.58125,left
12026945154421,6.4558353,-0.38404804,1.0737791,0.3090976,-2.4318526,-0.7139482,68.53125,81.76875,117.58125,left
12026940191660,6.4558353,-0.38404804,1.0737791,0.3090976,-2.4318526,-0.7139482,68.53125,81.76875,117.58125,left
12026960275462,6.4558353,-0.38404804,1.0737791,0.3090976,-2.4318526,-0.7139482,65.90625,80.68125,119.418755,left
12026970275410,6.4558353,-0.38404804,1.0737791,0.3090976,-2.4318526,-0.7139482,66.600006,82.875,119.568756,left
12026964227389,6.680761,-0.16390835,0.044865426,0.22601996,-2.0946553,-0.5539016,66.600006,82.875,119.568756,left
12026959264629,6.680761,-0.16390835,0.044865426,0.22601996,-2.0946553,-0.5539016,66.600006,82.875,119.568756,left
12026980275358,6.680761,-0.16390835,0.044865426,0.22601996,-2.0946553,-0.5539016,67.425,79.125,121.481255,left
12026983270410,6.7094746,-0.106480606,-0.77347994,0.22601996,-2.0946553,-0.5539016,62.625004,80.83125,118.74375,left
12026990275306,6.7094746,-0.106480606,-0.77347994,0.22601996,-2.0946553,-0.5539016,62.625004,80.83125,118.74375,left
12027000275254,6.7094746,-0.106480606,-0.77347994,0.1075122,-1.7000366,-0.38896814,65.287506,81.881256,118.93125,left
12026978307650,6.7094746,-0.106480606,-0.77347994,0.1075122,-1.7000366,-0.38896814,65.287506,81.881256,118.93125,left
12027010275202,6.7094746,-0.106480606,-0.77347994,0.1075122,-1.7000366,-0.38896814,63.375004,82.012505,120.3,left
12027002344421,6.652047,0.20937198,-1.4578272,0.1075122,-1.7000366,-0.38896814,63.375004,82.012505,120.3,left
12026997381660,6.652047,0.20937198,-1.4578272,0.12583815,-1.246775,-0.19593488,63.375004,82.012505,120.3,left
12027020275150,6.652047,0.20937198,-1.4578272,0.12583815,-1.246775,-0.19593488,61.4625,81.09375,118.87501,left
12027030275098,6.652047,0.20937198,-1.4578272,0.11606431,-0.74464417,0.075289086,64.875,81.76875,121.668755,left
12027021417389,6.977471,0.8171489,-2.295315,0.11606431,-0.74464417,0.075289086,64.875,81.76875,121.668755,left
12027016454629,6.977471,0.8171489,-2.295315,0.11606431,-0.74464417,0.075289086,64.875,81.76875,121.668755,left
12027040275046,6.977471,0.8171489,-2.295315,0.11606431,-0.74464417,0.075289086,61.74375,80.49375,121.856255,left
12027050274994,6.977471,0.8171489,-2.295315,0.11606431,-0.74464417,0.075289086,65.26875,78.075005,124.68751,left
12027040491400,7.1066833,1.3722838,-3.4630125,0.11606431,-0.74464417,0.075289086,65.26875,78.075005,124.68751,left
12027035528639,7.1066833,1.3722838,-3.4630125,-0.09773836,-0.10690133,0.45891216,65.26875,78.075005,124.68751,left
12027060274941,7.1066833,1.3722838,-3.4630125,-0.09773836,-0.10690133,0.45891216,64.200005,80.9625,121.950005,left
12027054601660,7.1066833,1.3722838,-3.4630125,-0.4508182,0.75563973,0.8523091,63.581253,79.631256,120.99375,left
12027070274889,6.7812595,2.0470598,-4.161717,-0.4508182,0.75563973,0.8523091,63.581253,79.631256,120.99375,left
12027059564421,6.7812595,2.0470598,-4.161717,-0.4508182,0.75563973,0.8523091,63.581253,79.631256,120.99375,left
12027080274837,6.7812595,2.0470598,-4.161717,-0.4508182,0.75563973,0.8523091,63.581253,79.631256,120.99375,left
12027073675671,6.7812595,2.0470598,-4.161717,-0.750142,1.7916664,1.2090541,63.581253,79.631256,120.99375,left
12027078638431,5.6039906,1.5493526,-3.5587256,-0.750142,1.7916664,1.2090541,65.025,83.3625,120.506256,left
12027090274785,5.6039906,1.5493526,-3.5587256,-0.750142,1.7916664,1.2090541,65.025,83.3625,120.506256,left
12027100274733,5.6039906,1.5493526,-3.5587256,-0.750142,1.7916664,1.2090541,63.393753,79.33125,120.56251,left
12027097681400,4.1587257,0.22851457,-2.1661026,-0.9150754,2.8105888,1.4924954,63.393753,79.33125,120.56251,left
12027092718639,4.1587257,0.22851457,-2.1661026,-0.9150754,2.8105888,1.4924954,67.012505,82.350006,120.543755,left
12027110274681,4.1587257,0.22851457,-2.1661026,-0.9150754,2.8105888,1.4924954,67.012505,82.350006,120.543755,left
12027120274629,4.1587257,0.22851457,-2.1661026,-0.9150754,2.8105888,1.4924954,68.86875,84.76875,118.350006,left
12027116754421,4.3740797,0.21894327,-1.2329018,-0.849102,3.636478,1.7136284,68.86875,84.76875,118.350006,left
12027111791660,4.3740797,0.21894327,-1.2329018,-0.849102,3.636478,1.7136284,68.86875,84.76875,118.350006,left
12027130274577,4.3740797,0.21894327,-1.2329018,-0.849102,3.636478,1.7136284,66.99375,84.28125,116.137505,left
12027140274525,4.3740797,0.21894327,-1.2329018,-0.849102,3.636478,1.7136284,68.4,89.34375,113.193756,left
12027135827389,4.651647,0.6113662,2.0979073,-0.849102,3.636478,1.7136284,68.4,89.34375,113.193756,left
12027130864629,4.651647,0.6113662,2.0979073,-0.69638586,4.4025025,1.8125886,73.36875,88.425,113.11875,left
12027150274473,4.651647,0.6113662,2.0979073,-0.69638586,4.4025025,1.8125886,73.36875,88.425,113.11875,left
12027160274421,4.651647,0.6113662,2.0979073,-0.69638586,4.4025025,1.8125886,72.9,89.9625,111.318756,left
12027154901400,-3.5030923,-12.434303,44.728436,-0.9138537,4.756804,1.6916373,72.9,89.9625,111.318756,left
12027149938639,-3.5030923,-12.434303,44.728436,-0.9138537,4.756804,1.6916373,72.9,89.9625,111.318756,left
12027170274369,-3.5030923,-12.434303,44.728436,-0.9138537,4.756804,1.6916373,74.625,89.512505,110.25001,left
12027180274316,-3.5030923,-12.434303,44.728436,-0.9138537,4.756804,1.6916373,75.600006,93.99375,111.225006,left
12027173974421,-1.268196,-5.255835,23.977877,-0.9138537,4.756804,1.6916373,75.600006,93.99375,111.225006,left
12027169011660,-1.268196,-5.255835,23.977877,-5.744572,1.1710278,-0.79336065,75.600006,93.99375,111.225006,left
12027190274264,-1.268196,-5.255835,23.977877,-5.744572,1.1710278,-0.79336065,74.381256,92.100006,113.30625,left
12027200274212,-1.268196,-5.255835,23.977877,-5.744572,1.1710278,-0.79336065,74.475006,92.006256,111.15,left
12027193048431,5.871987,-22.766512,10.286146,3.0152285,-1.1172717,1.6415464,74.475006,92.006256,111.15,left
12027188085671,5.871987,-22.766512,10.286146,3.0152285,-1.1172717,1.6415464,74.475006,92.006256,111.15,left
12027210274160,5.871987,-22.766512,10.286146,3.0152285,-1.1172717,1.6415464,75.65625,90.76875,110.100006,left
12027220274108,5.871987,-22.766512,10.286146,3.0152285,-1.1172717,1.6415464,75.693756,89.64375,110.06251,left
12027207128639,6.8051877,6.4977098,20.163717,2.3567164,-0.34391686,-1.1452187,75.693756,89.64375,110.06251,left
12027212091400,6.8051877,6.4977098,20.163717,2.3567164,-0.34391686,-1.1452187,75.693756,89.64375,110.06251,left
12027230274056,6.8051877,6.4977098,20.163717,2.3567164,-0.34391686,-1.1452187,74.68125,91.36875,109.93125,left
12027240274004,6.8051877,6.4977098,20.163717,2.3567164,-0.34391686,-1.1452187,75.01875,91.36875,111.56251,left
12027231164421,6.283552,2.2671995,12.090335,2.3567164,-0.34391686,-1.1452187,75.01875,91.36875,111.56251,left
12027226201660,6.283552,2.2671995,12.090335,-1.8509203,-1.427591,-0.9937243,75.01875,91.36875,111.56251,left
12027250273952,6.283552,2.2671995,12.090335,-1.8509203,-1.427591,-0.9937243,73.5,90.99375,113.325005,left
12027250238431,6.977471,-9.385847,8.520244,-1.8509203,-1.427591,-0.9937243,73.5,90.99375,113.325005,left
12027245275671,6.977471,-9.385847,8.520244,-2.1514657,-1.7831143,-0.88499033,73.5,90.99375,113.325005,left
12027260273900,6.977471,-9.385847,8.520244,-2.1514657,-1.7831143,-0.88499033,73.387505,91.0875,114.450005,left
12027270273848,6.977471,-9.385847,8.520244,-2.1514657,-1.7831143,-0.88499033,71.475006,91.425,113.775,left
12027264348639,6.977471,-9.385847,8.520244,0.7012728,-1.6328416,-1.2967132,71.475006,91.425,113.775,left
12027269311400,6.5228343,-5.7200427,8.295318,0.7012728,-1.6328416,-1.2967132,71.475006,91.425,113.775,left
12027280273796,6.5228343,-5.7200427,8.295318,0.7012728,-1.6328416,-1.2967132,69.24375,90.131256,113.925,left
12027290273744,6.5228343,-5.7200427,8.295318,0.7012728,-1.6328416,-1.2967132,69.24375,90.131256,113.925,left
12027288385410,5.0679984,-0.66161543,8.4197445,2.0720534,-1.7733405,-1.0034981,69.24375,90.131256,113.925,left
12027283422650,5.0679984,-0.66161543,8.4197445,2.0720534,-1.7733405,-1.0034981,69.24375,90.131256,113.925,left
12027300273691,5.0679984,-0.66161543,8.4197445,2.0720534,-1.7733405,-1.0034981,67.9875,89.381256,114.731255,left
12027310273639,5.0679984,-0.66161543,8.4197445,2.0720534,-1.7733405,-1.0034981,67.950005,89.100006,115.05,left
12027307458431,5.9964137,0.28115666,6.189634,2.0720534,-1.7733405,-1.0034981,67.950005,89.100006,115.05,left
12027302495671,5.9964137,0.28115666,6.189634,1.2180644,-1.9150611,-1.1061234,67.950005,89.100006,115.05,left
12027320273587,5.9964137,0.28115666,6.189634,1.2180644,-1.9150611,-1.1061234,67.125,88.275,115.33125,left
12027330273535,5.9964137,0.28115666,6.189634,1.2180644,-1.9150611,-1.1061234,66.99375,86.981255,115.87501,left
12027326501400,6.647261,-1.9680966,3.394817,1.2180644,-1.9150611,-1.1061234,66.99375,86.981255,115.87501,left
12027321538639,6.647261,-1.9680966,3.394817,0.49724394,-1.9004003,-0.9338595,66.99375,86.981255,115.87501,left
12027340273483,6.647261,-1.9680966,3.394817,0.49724394,-1.9004003,-0.9338595,67.18125,87.43125,115.70625,left
12027350273431,6.647261,-1.9680966,3.394817,0.49724394,-1.9004003,-0.9338595,65.5875,84.918755,117.37501,left
12027345575410,7.1880393,-2.1308086,1.6815561,0.52656543,-1.6780455,-0.96928966,65.5875,84.918755,117.37501,left
12027340612650,7.1880393,-2.1308086,1.6815561,0.52656543,-1.6780455,-0.96928966,65.5875,84.918755,117.37501,left
12027360273379,7.1880393,-2.1308086,1.6815561,0.52656543,-1.6780455,-0.96928966,64.14375,83.53125,120.24375,left
12027370273327,7.1880393,-2.1308086,1.6815561,0.52656543,-1.6780455,-0.96928966,65.49375,88.18125,116.7375,left
12027359685671,7.2023964,-0.45583272,1.0737791,0.86131936,-1.3750566,-0.9033163,65.49375,88.18125,116.7375,left
12027364648431,7.2023964,-0.45583272,1.0737791,0.86131936,-1.3750566,-0.9033163,65.49375,88.18125,116.7375,left
12027380273275,7.2023964,-0.45583272,1.0737791,0.86131936,-1.3750566,-0.9033163,65.86875,84.506256,118.4625,left
12027390273223,7.2023964,-0.45583272,1.0737791,0.86131936,-1.3750566,-0.9033163,65.006256,83.4,118.762505,left
12027383722389,7.1306114,0.046660043,0.36550367,0.7061597,-1.0855067,-0.787252,65.006256,83.4,118.762505,left
12027378759629,7.1306114,0.046660043,0.36550367,0.7061597,-1.0855067,-0.787252,65.006256,83.4,118.762505,left
12027400273171,7.1306114,0.046660043,0.36550367,0.7061597,-1.0855067,-0.787252,63.91875,84.543755,118.36875,left
12027410273119,7.1306114,0.046660043,0.36550367,0.7061597,-1.0855067,-0.787252,62.568752,82.762505,120.00001,left
12027402795410,7.0396843,-0.82911307,-0.22313072,0.7061597,-1.0855067,-0.787252,62.568752,82.762505,120.00001,left
12027397832650,7.0396843,-0.82911307,-0.22313072,0.33597562,-0.7507528,-0.68707013,62.568752,82.762505,120.00001,left
12027420273066,7.0396843,-0.82911307,-0.22313072,0.33597562,-0.7507528,-0.68707013,62.7,82.96875,117.80625,left
12027430273014,7.0396843,-0.82911307,-0.22313072,0.33597562,-0.7507528,-0.68707013,61.65,82.8,119.30625,left
12027416906660,6.6855464,-1.0301101,0.064008005,0.21135922,-0.3488038,-0.5722276,61.65,82.8,119.30625,left
12027421869421,6.6855464,-1.0301101,0.064008005,0.21135922,-0.3488038,-0.5722276,61.65,82.8,119.30625,left
12027440272962,6.6855464,-1.0301101,0.064008005,0.21135922,-0.3488038,-0.5722276,63.750004,82.4625,121.6125,left
12027450272910,6.6855464,-1.0301101,0.064008005,0.21135922,-0.3488038,-0.5722276,63.487503,83.025,119.925,left
12027440912389,6.7429743,0.2428715,-0.54376894,0.13927718,0.082466744,-0.41218102,63.487503,83.025,119.925,left
12027435949629,6.7429743,0.2428715,-0.54376894,0.13927718,0.082466744,-0.41218102,63.487503,83.025,119.925,left
12027460272858,6.7429743,0.2428715,-0.54376894,0.13927718,0.082466744,-0.41218102,63.468754,83.0625,118.912506,left
12027455022650,6.8339014,1.1234303,-1.4338989,-0.07086031,0.59803665,-0.1678351,63.468754,83.0625,118.912506,left
12027459985410,6.8339014,1.1234303,-1.4338989,-0.07086031,0.59803665,-0.1678351,63.468754,83.0625,118.912506,left
12027470272806,6.8339014,1.1234303,-1.4338989,-0.07086031,0.59803665,-0.1678351,62.86875,81.693756,118.96876,left
12027480272754,6.8339014,1.1234303,-1.4338989,-0.07086031,0.59803665,-0.1678351,62.86875,81.693756,118.96876,left
12027474096660,6.8339014,1.1234303,-1.4338989,-0.3970621,1.2492185,0.12293654,62.86875,81.693756,118.96876,left
12027479059421,6.283552,1.841277,-2.079961,-0.3970621,1.2492185,0.12293654,63.487503,81.9375,118.725006,left
12027490272702,6.283552,1.841277,-2.079961,-0.3970621,1.2492185,0.12293654,63.487503,81.9375,118.725006,left
12027500272650,6.283552,1.841277,-2.079961,-0.3970621,1.2492185,0.12293654,64.012505,82.89375,116.943756,left
12027493169629,6.283552,1.841277,-2.079961,-0.68905544,2.010356,0.45402524,64.012505,82.89375,116.943756,left
12027510272598,5.6279187,1.9704895,-2.5058835,-0.68905544,2.010356,0.45402524,65.606255,82.200005,118.65,left
12027498132389,5.6279187,1.9704895,-2.5058835,-0.68905544,2.010356,0.45402524,65.606255,82.200005,118.65,left
12027520272546,5.6279187,1.9704895,-2.5058835,-0.68905544,2.010356,0.45402524,65.981255,84.881256,114.93751,left
12027517206400,4.1108694,1.5637096,-1.3621143,-0.7941242,2.8619015,0.82420933,65.981255,84.881256,114.93751,left
12027512243639,4.1108694,1.5637096,-1.3621143,-0.7941242,2.8619015,0.82420933,65.34375,83.25,114.450005,left
12027530272494,4.1108694,1.5637096,-1.3621143,-0.7941242,2.8619015,0.82420933,65.34375,83.25,114.450005,left
12027540272441,4.1108694,1.5637096,-1.3621143,-0.7941242,2.8619015,0.82420933,67.40625,84.075005,115.481255,left
12027536279421,2.4502504,2.2145574,0.39421752,-0.7941242,2.8619015,0.82420933,67.40625,84.075005,115.481255,left
12027531316660,2.4502504,2.2145574,0.39421752,-0.8271109,3.67313,1.1455241,67.40625,84.075005,115.481255,left
12027550272389,2.4502504,2.2145574,0.39421752,-0.8271109,3.67313,1.1455241,70.03125,85.162506,113.49375,left
12027560272337,2.4502504,2.2145574,0.39421752,-0.8271109,3.67313,1.1455241,70.106255,84.46875,113.418755,left
12027555353431,1.2586247,0.49172506,5.0362935,-0.8271109,3.67313,1.1455241,70.106255,84.46875,113.418755,left
12027550390671,1.2586247,0.49172506,5.0362935,-0.6499601,4.2436776,1.4472914,70.106255,84.46875,113.418755,left
12027570272285,1.2586247,0.49172506,5.0362935,-0.6499601,4.2436776,1.4472914,71.850006,85.875,111.01875,left
12027580272233,1.2586247,0.49172506,5.0362935,-0.6499601,4.2436776,1.4472914,73.9875,86.45625,110.193756,left
12027574396400,-7.757531,-22.192234,35.104504,-0.66217744,2.0079126,0.24633121,73.9875,86.45625,110.193756,left
12027569433639,-7.757531,-22.192234,35.104504,-0.66217744,2.0079126,0.24633121,73.9875,86.45625,110.193756,left
12027590272181,-7.757531,-22.192234,35.104504,-0.66217744,2.0079126,0.24633121,73.21875,86.043755,111.731255,left
12027600272129,-7.757531,-22.192234,35.104504,-0.66217744,2.0079126,0.24633121,73.96875,86.49375,108.43125,left
12027593469421,10.380065,1.0947163,9.697512,-0.66217744,2.0079126,0.24633121,73.96875,86.49375,108.43125,left
12027588506660,10.380065,1.0947163,9.697512,3.040885,1.2137883,1.2395973,73.96875,86.49375,108.43125,left
12027610272077,10.380065,1.0947163,9.697512,3.040885,1.2137883,1.2395973,74.4,83.568756,109.068756,left
12027620272025,10.380065,1.0947163,9.697512,3.040885,1.2137883,1.2395973,75.0,85.2375,107.512505,left
12027607580671,3.4791641,9.881161,14.047664,1.3304635,0.93767744,1.4033091,75.0,85.2375,107.512505,left
12027612543431,3.4791641,9.881161,14.047664,1.3304635,0.93767744,1.4033091,75.0,85.2375,107.512505,left
12027630271973,3.4791641,9.881161,14.047664,1.3304635,0.93767744,1.4033091,76.443756,85.96875,108.3375,left
12027640271921,3.4791641,9.881161,14.047664,1.3304635,0.93767744,1.4033091,76.387505,84.9,111.3375,left
12027631616400,-0.7322037,-7.1509504,17.904894,1.3304635,0.93767744,1.4033091,76.387505,84.9,111.3375,left
12027626653639,-0.7322037,-7.1509504,17.904894,-3.3231044,0.43554658,-0.06398808,76.387505,84.9,111.3375,left
12027650271869,-0.7322037,-7.1509504,17.904894,-3.3231044,0.43554658,-0.06398808,74.08125,87.15,111.15,left
12027660271816,-0.7322037,-7.1509504,17.904894,-3.3231044,0.43554658,-0.06398808,76.481255,87.01875,112.443756,left
12027650690410,6.6999035,-9.127422,12.420544,-3.3939648,-0.38423395,-0.06887501,76.481255,87.01875,112.443756,left
12027645727650,6.6999035,-9.127422,12.420544,-3.3939648,-0.38423395,-0.06887501,76.481255,87.01875,112.443756,left
12027670271764,6.6999035,-9.127422,12.420544,-3.3939648,-0.38423395,-0.06887501,74.700005,90.24375,109.4625,left
12027669763431,6.704689,-4.308277,10.0372925,0.035430156,-0.47830713,0.14737113,74.700005,90.24375,109.4625,left
12027680271712,6.704689,-4.308277,10.0372925,0.035430156,-0.47830713,0.14737113,74.793755,89.3625,111.731255,left
12027664800671,6.704689,-4.308277,10.0372925,0.035430156,-0.47830713,0.14737113,74.793755,89.3625,111.731255,left
12027690271660,6.704689,-4.308277,10.0372925,0.035430156,-0.47830713,0.14737113,73.14375,86.90625,110.475006,left
12027683843639,6.704689,-4.308277,10.0372925,1.4135411,-0.6994402,0.08872811,73.14375,86.90625,110.475006,left
12027688806400,5.393422,-1.9680966,9.664013,1.4135411,-0.6994402,0.08872811,73.14375,86.90625,110.475006,left
12027700271608,5.393422,-1.9680966,9.664013,1.4135411,-0.6994402,0.08872811,73.14375,86.90625,110.475006,left
12027710271556,5.393422,-1.9680966,9.664013,1.4135411,-0.6994402,0.08872811,76.14375,88.275,110.700005,left
12027707879421,5.4843497,-2.906083,9.783653,1.4135411,-0.6994402,0.08872811,76.14375,88.275,110.700005,left
12027702916660,5.4843497,-2.906083,9.783653,0.91874063,-0.9107994,-0.060322896,76.14375,88.275,110.700005,left
12027720271504,5.4843497,-2.906083,9.783653,0.91874063,-0.9107994,-0.060322896,75.65625,87.787506,110.981255,left
12027730271452,5.4843497,-2.906083,9.783653,0.91874063,-0.9107994,-0.060322896,74.568756,87.3375,112.350006,left
12027726953431,5.7188463,-3.6047873,8.726026,0.42882708,-0.993877,-0.21303909,74.568756,87.3375,112.350006,left
