# Session ID: 20250816_095324
# Start Time: 1755330804313
# Device ID: watch_1
# Sample Count: 1340
# Generated by Watch IMU Recorder
timestamp,accel_x,accel_y,accel_z,gyro_x,gyro_y,gyro_z,mag_x,mag_y,mag_z,watch_name
15871116990709,6.7573314,-7.792227,3.0263224,0.18325943,0.2046397,-0.18127412,49.443752,11.38125,-14.55,watch_1
15871136060970,6.7238317,-7.797013,2.6721847,0.18325943,0.2046397,-0.18127412,49.443752,11.38125,-14.55,watch_1
15871155144303,6.8865438,-7.629515,2.504687,0.18325943,0.2046397,-0.18127412,49.443752,11.38125,-14.55,watch_1
15871174218314,6.963114,-6.9786673,3.1794631,0.18325943,0.2046397,-0.18127412,49.443752,11.38125,-14.55,watch_1
15871193261282,7.025327,-6.7441707,3.9212382,0.18325943,0.2046397,-0.18127412,49.443752,11.38125,-14.55,watch_1
15871212334303,7.1880393,-6.7633133,4.6007996,1.0238093,0.19486587,-0.57955796,49.443752,11.38125,-14.55,watch_1
15871207371543,7.1880393,-6.7633133,4.6007996,1.0238093,0.19486587,-0.57955796,49.443752,11.38125,-14.55,watch_1
15871224301803,7.1880393,-6.7633133,4.6007996,1.0238093,0.19486587,-0.57955796,-9.6,18.9375,-13.650001,watch_1
15871234301751,7.1880393,-6.7633133,4.6007996,1.0238093,0.19486587,-0.57955796,-11.681251,21.65625,-20.681252,watch_1
15871244301699,7.1880393,-6.7633133,4.6007996,1.0238093,0.19486587,-0.57955796,-13.500001,20.962502,-18.7875,watch_1
15871231408314,6.9966135,-6.6819572,4.390231,0.9761619,0.1631009,-0.66141385,-13.500001,20.962502,-18.7875,watch_1
15871226445553,6.9966135,-6.6819572,4.390231,0.9761619,0.1631009,-0.66141385,-13.500001,20.962502,-18.7875,watch_1
15871254301647,6.9966135,-6.6819572,4.390231,0.9761619,0.1631009,-0.66141385,-11.700001,22.800001,-20.94375,watch_1
15871250481282,7.216753,-6.7058854,3.5001013,1.0494657,0.12767074,-0.768926,-11.700001,22.800001,-20.94375,watch_1
15871245518522,7.216753,-6.7058854,3.5001013,1.0494657,0.12767074,-0.768926,-11.700001,22.800001,-20.94375,watch_1
15871264301595,7.216753,-6.7058854,3.5001013,1.0494657,0.12767074,-0.768926,-13.51875,19.875,-20.868752,watch_1
15871274301543,7.216753,-6.7058854,3.5001013,1.0494657,0.12767074,-0.768926,-14.08125,21.975,-23.60625,watch_1
15871269555293,7.1784678,-5.9353967,3.7298124,1.0494657,0.12767074,-0.768926,-14.08125,21.975,-23.60625,watch_1
15871264592532,7.1784678,-5.9353967,3.7298124,1.4013238,0.16065744,-0.85933405,-14.08125,21.975,-23.60625,watch_1
15871284301491,7.1784678,-5.9353967,3.7298124,1.4013238,0.16065744,-0.85933405,-12.8625,20.868752,-23.79375,watch_1
15871294301439,7.1784678,-5.9353967,3.7298124,1.4013238,0.16065744,-0.85933405,-14.868751,18.900002,-23.1,watch_1
15871288628314,7.159325,-5.0213385,4.514658,1.4013238,0.16065744,-0.85933405,-14.868751,18.900002,-23.1,watch_1
15871283665553,7.159325,-5.0213385,4.514658,1.6859868,0.17409647,-0.9314161,-14.868751,18.900002,-23.1,watch_1
15871304301387,7.159325,-5.0213385,4.514658,1.6859868,0.17409647,-0.9314161,-15.6,20.362501,-23.775002,watch_1
15871314301334,7.159325,-5.0213385,4.514658,1.6859868,0.17409647,-0.9314161,-12.243751,18.4125,-24.206251,watch_1
15871307701282,7.283752,-4.1647077,5.366503,1.6200134,0.16065744,-0.9937243,-12.243751,18.4125,-24.206251,watch_1
15871302738522,7.283752,-4.1647077,5.366503,1.6200134,0.16065744,-0.9937243,-12.243751,18.4125,-24.206251,watch_1
15871324301282,7.283752,-4.1647077,5.366503,1.6200134,0.16065744,-0.9937243,-16.650002,19.7625,-27.468752,watch_1
15871334301230,7.283752,-4.1647077,5.366503,1.6200134,0.16065744,-0.9937243,-14.812501,18.88125,-28.050001,watch_1
15871326775293,7.0875406,-4.351348,5.581857,1.6200134,0.16065744,-0.9937243,-14.812501,18.88125,-28.050001,watch_1
15871321812532,7.0875406,-4.351348,5.581857,1.1264347,0.1386663,-1.0144937,-14.812501,18.88125,-28.050001,watch_1
15871344301178,7.0875406,-4.351348,5.581857,1.1264347,0.1386663,-1.0144937,-13.51875,18.16875,-26.94375,watch_1
15871354301126,7.0875406,-4.351348,5.581857,1.1264347,0.1386663,-1.0144937,-17.34375,15.95625,-26.456251,watch_1
15871345848314,7.422536,-4.447061,5.074579,0.7110466,0.09468404,-0.96806794,-17.34375,15.95625,-26.456251,watch_1
15871340885553,7.422536,-4.447061,5.074579,0.7110466,0.09468404,-0.96806794,-17.34375,15.95625,-26.456251,watch_1
15871364301074,7.422536,-4.447061,5.074579,0.7110466,0.09468404,-0.96806794,-16.725,14.775001,-26.250002,watch_1
15871374301022,7.422536,-4.447061,5.074579,0.7110466,0.09468404,-0.96806794,-15.450001,15.50625,-26.775002,watch_1
15871364891282,7.905886,-3.3702908,4.730012,0.5913171,0.10445788,-0.8642209,-15.450001,15.50625,-26.775002,watch_1
15871359928522,7.905886,-3.3702908,4.730012,0.5913171,0.10445788,-0.8642209,-15.450001,15.50625,-26.775002,watch_1
15871384300970,7.905886,-3.3702908,4.730012,0.5913171,0.10445788,-0.8642209,-16.706251,15.075001,-27.300001,watch_1
15871379002532,8.19781,-2.0350957,5.1463633,0.55100006,0.07880156,-0.67729634,-16.425001,16.40625,-28.575,watch_1
15871383965293,8.19781,-2.0350957,5.1463633,0.55100006,0.07880156,-0.67729634,-16.425001,16.40625,-28.575,watch_1
15871394300918,8.19781,-2.0350957,5.1463633,0.55100006,0.07880156,-0.67729634,-16.425001,16.40625,-28.575,watch_1
15871404300866,8.19781,-2.0350957,5.1463633,0.55100006,0.07880156,-0.67729634,-14.700001,15.618751,-26.98125,watch_1
15871398075553,8.19781,-2.0350957,5.1463633,0.5387827,0.021380268,-0.40973756,-14.700001,15.618751,-26.98125,watch_1
15871403038314,8.475378,-2.14038,4.916652,0.5387827,0.021380268,-0.40973756,-16.3125,15.0375,-29.718752,watch_1
15871414300814,8.475378,-2.14038,4.916652,0.5387827,0.021380268,-0.40973756,-16.3125,15.0375,-29.718752,watch_1
15871424300762,8.475378,-2.14038,4.916652,0.5387827,0.021380268,-0.40973756,-17.925001,15.262501,-29.925001,watch_1
15871422112324,8.135597,-2.1690936,4.8065825,0.6976076,0.0140498895,-0.13973531,-17.925001,15.262501,-29.925001,watch_1
15871417149564,8.135597,-2.1690936,4.8065825,0.6976076,0.0140498895,-0.13973531,-17.925001,15.262501,-29.925001,watch_1
15871434300709,8.135597,-2.1690936,4.8065825,0.6976076,0.0140498895,-0.13973531,-16.368752,15.900001,-30.393751,watch_1
15871444300657,8.135597,-2.1690936,4.8065825,0.6976076,0.0140498895,-0.13973531,-17.456251,15.450001,-29.175001,watch_1
15871441185293,7.652247,-1.747957,5.041079,0.63896453,0.025045456,0.074067354,-16.875,15.4125,-30.562502,watch_1
15871436222532,7.652247,-1.747957,5.041079,0.63896453,0.025045456,0.074067354,-16.875,15.4125,-30.562502,watch_1
15871454300605,7.652247,-1.747957,5.041079,0.63896453,0.025045456,0.074067354,-16.875,15.4125,-30.562502,watch_1
15871464300553,7.652247,-1.747957,5.041079,0.63896453,0.025045456,0.074067354,-15.675,15.262501,-29.23125,watch_1
15871460259303,7.436893,-2.0111675,4.9118667,0.27366742,0.034819294,0.25610507,-15.675,15.262501,-29.23125,watch_1
15871455296543,7.436893,-2.0111675,4.9118667,0.27366742,0.034819294,0.25610507,-15.675,15.262501,-29.23125,watch_1
15871474300501,7.436893,-2.0111675,4.9118667,0.27366742,0.034819294,0.25610507,-17.831251,16.275002,-30.45,watch_1
15871484300449,7.436893,-2.0111675,4.9118667,0.27366742,0.034819294,0.25610507,-17.268751,15.6,-28.875002,watch_1
15871479332324,7.1162543,-2.164308,4.9214377,-0.06475167,0.058032155,0.4027126,-17.268751,15.6,-28.875002,watch_1
15871474369564,7.1162543,-2.164308,4.9214377,-0.06475167,0.058032155,0.4027126,-17.268751,15.6,-28.875002,watch_1
15871494300397,7.1162543,-2.164308,4.9214377,-0.06475167,0.058032155,0.4027126,-18.16875,15.937501,-30.31875,watch_1
15871504300345,7.1162543,-2.164308,4.9214377,-0.06475167,0.058032155,0.4027126,-16.5,16.0125,-29.85,watch_1
15871493443522,7.0205417,-2.288735,4.878367,-0.31398448,0.06780599,0.54443324,-16.5,16.0125,-29.85,watch_1
15871498406282,7.0205417,-2.288735,4.878367,-0.31398448,0.06780599,0.54443324,-16.5,16.0125,-29.85,watch_1
15871514300293,7.0205417,-2.288735,4.878367,-0.31398448,0.06780599,0.54443324,-16.5,17.60625,-31.593752,watch_1
15871524300241,7.0205417,-2.288735,4.878367,-0.31398448,0.06780599,0.54443324,-15.1125,17.737501,-29.41875,watch_1
15871517479303,7.0492554,-2.7098715,4.371089,-0.31398448,0.06780599,0.54443324,-15.1125,17.737501,-29.41875,watch_1
15871512516543,7.0492554,-2.7098715,4.371089,-0.4459313,0.08735366,0.6837104,-15.1125,17.737501,-29.41875,watch_1
15871534300189,7.0492554,-2.7098715,4.371089,-0.4459313,0.08735366,0.6837104,-15.39375,18.0,-30.487501,watch_1
15871544300137,7.2023964,-2.4514468,4.284947,-0.4459313,0.08735366,0.6837104,-15.356251,16.85625,-29.212502,watch_1
15871536553314,7.2023964,-2.4514468,4.284947,-0.4459313,0.08735366,0.6837104,-15.356251,16.85625,-29.212502,watch_1
15871531590553,7.2023964,-2.4514468,4.284947,-0.43982264,0.1301142,0.7680097,-15.356251,16.85625,-29.212502,watch_1
15871554300084,7.2023964,-2.4514468,4.284947,-0.43982264,0.1301142,0.7680097,-15.225,18.16875,-30.337502,watch_1
15871564300032,7.2023964,-2.4514468,4.284947,-0.43982264,0.1301142,0.7680097,-15.000001,18.75,-29.79375,watch_1
15871550633522,6.8817577,-2.609373,5.0602217,-0.4838049,0.14110976,0.85963947,-15.000001,18.75,-29.79375,watch_1
15871555596282,6.8817577,-2.609373,5.0602217,-0.4838049,0.14110976,0.85963947,-15.000001,18.75,-29.79375,watch_1
15871574299980,6.8817577,-2.609373,5.0602217,-0.4838049,0.14110976,0.85963947,-14.137501,19.85625,-30.525002,watch_1
15871584299928,6.8817577,-2.609373,5.0602217,-0.4838049,0.14110976,0.85963947,-16.237501,19.556252,-29.00625,watch_1
15871574669303,6.8099732,-3.3607194,5.2085767,-0.6218603,0.09224058,0.9427171,-16.237501,19.556252,-29.00625,watch_1
15871569706543,6.8099732,-3.3607194,5.2085767,-0.6218603,0.09224058,0.9427171,-16.237501,19.556252,-29.00625,watch_1
15871594299876,6.8099732,-3.3607194,5.2085767,-0.6218603,0.09224058,0.9427171,-15.150001,19.96875,-28.63125,watch_1
15871588780553,6.680761,-3.9302113,5.907281,-0.8344413,0.04214967,0.97081685,-15.150001,19.96875,-28.63125,watch_1
15871593743314,6.680761,-3.9302113,5.907281,-0.8344413,0.04214967,0.97081685,-15.150001,19.96875,-28.63125,watch_1
15871604299824,6.680761,-3.9302113,5.907281,-0.8344413,0.04214967,0.97081685,-14.343751,20.5125,-28.875002,watch_1
15871614299772,6.680761,-3.9302113,5.907281,-0.8344413,0.04214967,0.97081685,-12.450001,21.46875,-28.893751,watch_1
15871624299720,6.647261,-4.930411,5.510072,-1.1765256,-0.029932374,0.9524909,-13.425,19.181252,-27.618752,watch_1
15871607853522,6.647261,-4.930411,5.510072,-1.1765256,-0.029932374,0.9524909,-13.425,19.181252,-27.618752,watch_1
15871612816282,6.647261,-4.930411,5.510072,-1.1765256,-0.029932374,0.9524909,-13.425,19.181252,-27.618752,watch_1
15871634299668,6.647261,-4.930411,5.510072,-1.1765256,-0.029932374,0.9524909,-13.481251,22.875,-28.425001,watch_1
15871631890293,6.7573314,-5.825327,4.706084,-1.5369358,-0.076358095,0.8852958,-13.481251,22.875,-28.425001,watch_1
15871626927532,6.7573314,-5.825327,4.706084,-1.5369358,-0.076358095,0.8852958,-13.481251,22.875,-28.425001,watch_1
15871644299616,6.7573314,-5.825327,4.706084,-1.5369358,-0.076358095,0.8852958,-13.425,21.712502,-27.150002,watch_1
15871654299564,6.7573314,-5.825327,4.706084,-1.5369358,-0.076358095,0.8852958,-12.937501,23.643751,-27.712502,watch_1
15871650963314,6.853044,-6.1124654,3.9786658,-1.5369358,-0.076358095,0.8852958,-12.937501,23.643751,-27.712502,watch_1
15871646000553,6.853044,-6.1124654,3.9786658,-1.7201952,-0.109344795,0.7496838,-12.937501,23.643751,-27.712502,watch_1
15871664299512,6.853044,-6.1124654,3.9786658,-1.7201952,-0.109344795,0.7496838,-12.262501,23.962502,-25.63125,watch_1
15871674299459,6.853044,-6.1124654,3.9786658,-1.7201952,-0.109344795,0.7496838,-12.243751,25.5375,-26.362501,watch_1
15871670037324,6.853044,-5.743971,3.734598,-1.7201952,-0.109344795,0.7496838,-12.243751,25.5375,-26.362501,watch_1
15871665074564,6.853044,-5.743971,3.734598,-1.5870267,-0.13255766,0.68126696,-12.243751,25.5375,-26.362501,watch_1
15871684299407,6.853044,-5.743971,3.734598,-1.5870267,-0.13255766,0.68126696,-12.20625,24.225,-24.337502,watch_1
15871694299355,6.853044,-5.743971,3.734598,-1.5870267,-0.13255766,0.68126696,-11.925,25.5375,-24.88125,watch_1
15871689110293,6.407979,-5.595616,3.7633119,-1.5870267,-0.13255766,0.68126696,-11.925,25.5375,-24.88125,watch_1
15871684147532,6.407979,-5.595616,3.7633119,-1.364672,-0.14110976,0.6189587,-10.33125,25.968752,-22.125,watch_1
15871704299303,6.407979,-5.595616,3.7633119,-1.364672,-0.14110976,0.6189587,-10.33125,25.968752,-22.125,watch_1
15871714299251,6.407979,-5.595616,3.7633119,-1.364672,-0.14110976,0.6189587,-11.19375,24.862501,-21.825,watch_1
15871708184303,6.5084777,-5.9784675,3.8733816,-1.1606431,-0.17043127,0.572533,-11.19375,24.862501,-21.825,watch_1
15871703221543,6.5084777,-5.9784675,3.8733816,-1.1606431,-0.17043127,0.572533,-11.19375,24.862501,-21.825,watch_1
15871724299199,6.5084777,-5.9784675,3.8733816,-1.1606431,-0.17043127,0.572533,-9.993751,26.306252,-22.40625,watch_1
15871734299147,6.5084777,-5.9784675,3.8733816,-1.1606431,-0.17043127,0.572533,-10.743751,26.175001,-21.46875,watch_1
15871727227324,6.666404,-6.983453,3.394817,-1.1606431,-0.17043127,0.572533,-10.743751,26.175001,-21.46875,watch_1
15871744299095,6.666404,-6.983453,3.394817,-1.0323615,-0.17043127,0.4735729,-11.0625,26.156252,-22.21875,watch_1
15871722264564,6.666404,-6.983453,3.394817,-1.0323615,-0.17043127,0.4735729,-11.0625,26.156252,-22.21875,watch_1
15871754299043,6.666404,-6.983453,3.394817,-1.0323615,-0.17043127,0.4735729,-11.868751,25.48125,-21.525002,watch_1
15871746300293,6.9296145,-8.146365,3.0933216,-1.0323615,-0.17043127,0.4735729,-11.868751,25.48125,-21.525002,watch_1
15871741337532,6.9296145,-8.146365,3.0933216,-0.8772018,-0.11056653,0.35017824,-11.868751,25.48125,-21.525002,watch_1
15871764298991,6.9296145,-8.146365,3.0933216,-0.8772018,-0.11056653,0.35017824,-11.1,26.98125,-21.150002,watch_1
15871774298939,6.9296145,-8.146365,3.0933216,-0.8772018,-0.11056653,0.35017824,-10.6125,27.16875,-20.23125,watch_1
15871765374303,7.0779696,-8.754142,3.49053,-0.5864302,-0.045814857,0.21578798,-10.6125,27.16875,-20.23125,watch_1
15871760411543,7.0779696,-8.754142,3.49053,-0.5864302,-0.045814857,0.21578798,-10.6125,27.16875,-20.23125,watch_1
15871784298887,7.0779696,-8.754142,3.49053,-0.5864302,-0.045814857,0.21578798,-11.25,27.13125,-22.331251,watch_1
15871794298834,7.0779696,-8.754142,3.49053,-0.5864302,-0.045814857,0.21578798,-11.71875,26.75625,-21.337502,watch_1
15871784447324,6.977471,-8.409575,4.098307,-0.5864302,-0.045814857,0.21578798,-11.71875,26.75625,-21.337502,watch_1
15871779484564,6.977471,-8.409575,4.098307,-0.36285368,-0.005497783,0.080176,-11.71875,26.75625,-21.337502,watch_1
15871804298782,6.977471,-8.409575,4.098307,-0.36285368,-0.005497783,0.080176,-11.25,25.218752,-18.956251,watch_1
15871803521282,6.7334027,-8.199007,4.4093738,-0.36285368,-0.005497783,0.080176,-11.25,25.218752,-18.956251,watch_1
15871798558522,6.7334027,-8.199007,4.4093738,-0.36407542,-0.023823727,-0.041996952,-11.25,25.218752,-18.956251,watch_1
15871814298730,6.7334027,-8.199007,4.4093738,-0.36407542,-0.023823727,-0.041996952,-10.5,24.993752,-17.53125,watch_1
15871824298678,6.7334027,-8.199007,4.4093738,-0.36407542,-0.023823727,-0.041996952,-8.700001,25.087502,-17.493752,watch_1
15871822594303,6.8865438,-8.012366,3.7298124,-0.47036588,-0.059253883,-0.18616104,-8.700001,25.087502,-17.493752,watch_1
15871817631543,6.8865438,-8.012366,3.7298124,-0.47036588,-0.059253883,-0.18616104,-8.700001,25.087502,-17.493752,watch_1
15871834298626,6.8865438,-8.012366,3.7298124,-0.47036588,-0.059253883,-0.18616104,-11.4375,23.15625,-17.025002,watch_1
15871844298574,6.8865438,-8.012366,3.7298124,-0.47036588,-0.059253883,-0.18616104,-9.806251,27.206251,-17.1,watch_1
15871841668314,7.1306114,-8.127222,3.2033913,-0.47036588,-0.059253883,-0.18616104,-9.806251,27.206251,-17.1,watch_1
15871836705553,7.1306114,-8.127222,3.2033913,-0.41294459,-0.05070178,-0.31077746,-9.806251,27.206251,-17.1,watch_1
15871854298522,7.1306114,-8.127222,3.2033913,-0.41294459,-0.05070178,-0.31077746,-10.51875,25.0125,-18.5625,watch_1
15871864298470,7.1306114,-8.127222,3.2033913,-0.41294459,-0.05070178,-0.31077746,-12.4875,26.025002,-17.868752,watch_1
15871860741282,7.2023964,-8.385647,3.1555347,-0.18448116,-0.020158539,-0.4072941,-12.4875,26.025002,-17.868752,watch_1
15871855778522,7.2023964,-8.385647,3.1555347,-0.18448116,-0.020158539,-0.4072941,-12.4875,26.025002,-17.868752,watch_1
15871874298418,7.2023964,-8.385647,3.1555347,-0.18448116,-0.020158539,-0.4072941,-11.19375,26.737501,-17.212502,watch_1
15871884298366,7.2023964,-8.385647,3.1555347,-0.18448116,-0.020158539,-0.4072941,-10.931251,25.218752,-17.60625,watch_1
15871879815293,7.2502527,-8.577073,2.9736803,-0.18448116,-0.020158539,-0.4072941,-10.931251,25.218752,-17.60625,watch_1
15871874852532,7.2502527,-8.577073,2.9736803,0.118507765,0.0006108648,-0.48914996,-10.931251,25.218752,-17.60625,watch_1
15871894298314,7.2502527,-8.577073,2.9736803,0.118507765,0.0006108648,-0.48914996,-10.856251,26.2875,-20.325,watch_1
15871904298262,7.2502527,-8.577073,2.9736803,0.118507765,0.0006108648,-0.48914996,-11.00625,23.1,-17.85,watch_1
15871898888314,7.2119675,-7.739585,2.9545379,0.118507765,0.0006108648,-0.48914996,-11.00625,23.1,-17.85,watch_1
15871893925553,7.2119675,-7.739585,2.9545379,0.6023127,0.023823727,-0.5856666,-11.00625,23.1,-17.85,watch_1
15871914298209,7.2119675,-7.739585,2.9545379,0.6023127,0.023823727,-0.5856666,-10.59375,22.875,-17.775002,watch_1
15871924298157,7.2119675,-7.739585,2.9545379,0.6023127,0.023823727,-0.5856666,-12.675,21.45,-17.4375,watch_1
15871917931282,7.0348988,-6.533602,3.8303108,0.6023127,0.023823727,-0.5856666,-12.675,21.45,-17.4375,watch_1
15871912968522,7.0348988,-6.533602,3.8303108,0.97249675,0.032375835,-0.6687442,-12.675,21.45,-17.4375,watch_1
15871934298105,7.0348988,-6.533602,3.8303108,0.97249675,0.032375835,-0.6687442,-13.218751,23.7,-19.7625,watch_1
15871944298053,7.0348988,-6.533602,3.8303108,0.97249675,0.032375835,-0.6687442,-11.71875,21.993752,-17.23125,watch_1
15871937004303,6.9344,-5.538188,4.4859443,0.718377,-0.0042760535,-0.73960453,-11.71875,21.993752,-17.23125,watch_1
15871932041543,6.9344,-5.538188,4.4859443,0.718377,-0.0042760535,-0.73960453,-11.71875,21.993752,-17.23125,watch_1
15871954298001,6.9344,-5.538188,4.4859443,0.718377,-0.0042760535,-0.73960453,-12.806251,23.475,-20.268751,watch_1
15871964297949,6.9344,-5.538188,4.4859443,0.718377,-0.0042760535,-0.73960453,-14.512501,21.5625,-20.268751,watch_1
15871956078314,7.0636125,-5.973682,4.2035913,0.20036365,-0.077579826,-0.77625644,-14.512501,21.5625,-20.268751,watch_1
15871951115553,7.0636125,-5.973682,4.2035913,0.20036365,-0.077579826,-0.77625644,-14.512501,21.5625,-20.268751,watch_1
15871974297897,7.0636125,-5.973682,4.2035913,0.20036365,-0.077579826,-0.77625644,-12.525001,23.550001,-21.54375,watch_1
15871984297845,7.0636125,-5.973682,4.2035913,0.20036365,-0.077579826,-0.77625644,-12.7875,22.2,-19.706251,watch_1
15871975151282,7.159325,-6.8446693,3.313461,0.20036365,-0.077579826,-0.77625644,-12.7875,22.2,-19.706251,watch_1
15871970188522,7.159325,-6.8446693,3.313461,-0.10873393,-0.10567961,-0.8446733,-12.7875,22.2,-19.706251,watch_1
15871994297793,7.159325,-6.8446693,3.313461,-0.10873393,-0.10567961,-0.8446733,-14.08125,24.0,-19.3125,watch_1
15872004297741,7.159325,-6.8446693,3.313461,-0.10873393,-0.10567961,-0.8446733,-15.543751,24.075,-18.6,watch_1
15871994225293,7.04447,-6.6819572,2.8205397,-0.10873393,-0.10567961,-0.8446733,-15.543751,24.075,-18.6,watch_1
15871989262532,7.04447,-6.6819572,2.8205397,-0.041538805,-0.06780599,-0.97173315,-15.543751,24.075,-18.6,watch_1
15872014297689,7.04447,-6.6819572,2.8205397,-0.041538805,-0.06780599,-0.97173315,-15.262501,22.556252,-18.581251,watch_1
15872013298314,7.2023964,-5.6578293,2.8827531,-0.041538805,-0.06780599,-0.97173315,-15.262501,22.556252,-18.581251,watch_1
15872008335553,7.2023964,-5.6578293,2.8827531,0.20158538,-0.03604102,-1.0768019,-14.231251,22.725,-19.931252,watch_1
15872024297637,7.2023964,-5.6578293,2.8827531,0.20158538,-0.03604102,-1.0768019,-14.231251,22.725,-19.931252,watch_1
15872034297584,7.2023964,-5.6578293,2.8827531,0.20158538,-0.03604102,-1.0768019,-15.50625,22.1625,-20.737501,watch_1
15872032372324,7.5517483,-4.6145587,3.0789645,0.20158538,-0.03604102,-1.0768019,-15.50625,22.1625,-20.737501,watch_1
15872027409564,7.5517483,-4.6145587,3.0789645,0.39584038,-0.0018325944,-1.1110103,-15.50625,22.1625,-20.737501,watch_1
15872044297532,7.5517483,-4.6145587,3.0789645,0.39584038,-0.0018325944,-1.1110103,-16.575,22.0125,-20.85,watch_1
15872054297480,7.5517483,-4.6145587,3.0789645,0.39584038,-0.0018325944,-1.1110103,-16.21875,22.650002,-21.88125,watch_1
15872051445293,7.2215385,-4.485346,3.8877387,0.39584038,-0.0018325944,-1.1110103,-16.21875,22.650002,-21.88125,watch_1
15872046482532,7.2215385,-4.485346,3.8877387,0.4508182,0.020158539,-1.1061234,-16.21875,22.650002,-21.88125,watch_1
15872074297376,7.2215385,-4.485346,3.8877387,0.4508182,0.020158539,-1.1061234,-16.725,21.675001,-19.3875,watch_1
15872064297428,7.2215385,-4.485346,3.8877387,0.4508182,0.020158539,-1.1061234,-16.725,21.675001,-19.3875,watch_1
15872070519303,7.025327,-4.944768,4.0073795,0.4508182,0.020158539,-1.1061234,-16.725,21.675001,-19.3875,watch_1
15872065556543,7.025327,-4.944768,4.0073795,0.27488914,0.010384701,-1.0755801,-16.725,21.675001,-19.3875,watch_1
15872084297324,7.025327,-4.944768,4.0073795,0.27488914,0.010384701,-1.0755801,-16.81875,19.556252,-20.0625,watch_1
15872094297272,7.025327,-4.944768,4.0073795,0.27488914,0.010384701,-1.0755801,-14.400001,18.13125,-17.60625,watch_1
15872089562324,7.140183,-4.5427737,3.8590248,0.27488914,0.010384701,-1.0755801,-14.400001,18.13125,-17.60625,watch_1
15872084599564,7.140183,-4.5427737,3.8590248,0.086742796,0.018936807,-1.0413717,-18.0375,20.831251,-20.325,watch_1
15872104297220,7.140183,-4.5427737,3.8590248,0.086742796,0.018936807,-1.0413717,-18.0375,20.831251,-20.325,watch_1
15872114297168,7.140183,-4.5427737,3.8590248,0.086742796,0.018936807,-1.0413717,-19.66875,16.78125,-19.518751,watch_1
15872108635293,7.838887,-3.2650065,3.5527434,-0.046425723,0.055588696,-0.97295487,-19.66875,16.78125,-19.518751,watch_1
15872103672532,7.838887,-3.2650065,3.5527434,-0.046425723,0.055588696,-0.97295487,-19.66875,16.78125,-19.518751,watch_1
15872124297116,7.838887,-3.2650065,3.5527434,-0.046425723,0.055588696,-0.97295487,-18.54375,20.00625,-18.54375,watch_1
15872134297064,7.838887,-3.2650065,3.5527434,-0.046425723,0.055588696,-0.97295487,-18.712502,18.768751,-20.775002,watch_1
15872127709303,8.484949,-2.6476583,2.777469,-0.046425723,0.055588696,-0.97295487,-18.712502,18.768751,-20.775002,watch_1
15872122746543,8.484949,-2.6476583,2.777469,-0.10140356,0.1178969,-0.800691,-18.712502,18.768751,-20.775002,watch_1
15872144297012,8.484949,-2.6476583,2.777469,-0.10140356,0.1178969,-0.800691,-19.987501,19.95,-24.093752,watch_1
15872154296959,8.484949,-2.6476583,2.777469,-0.10140356,0.1178969,-0.800691,-21.0,18.65625,-22.9125,watch_1
15872146782324,8.451449,-3.0209386,2.8731818,0.09529491,0.17409647,-0.6052143,-21.0,18.65625,-22.9125,watch_1
15872141819564,8.451449,-3.0209386,2.8731818,0.09529491,0.17409647,-0.6052143,-21.0,18.65625,-22.9125,watch_1
15872164296907,8.451449,-3.0209386,2.8731818,0.09529491,0.17409647,-0.6052143,-20.23125,20.643751,-24.618752,watch_1
15872174296855,8.451449,-3.0209386,2.8731818,0.09529491,0.17409647,-0.6052143,-20.90625,21.112501,-24.31875,watch_1
15872165856282,8.3174515,-2.824727,3.3230324,0.09529491,0.17409647,-0.6052143,-20.90625,21.112501,-24.31875,watch_1
15872160893522,8.3174515,-2.824727,3.3230324,0.43493572,0.19120067,-0.4329504,-20.90625,21.112501,-24.31875,watch_1
15872184296803,8.3174515,-2.824727,3.3230324,0.43493572,0.19120067,-0.4329504,-21.768751,19.987501,-24.018751,watch_1
15872194296751,8.3174515,-2.824727,3.3230324,0.43493572,0.19120067,-0.4329504,-19.35,20.15625,-23.306252,watch_1
15872184929303,8.212168,-2.4466612,3.854239,0.43493572,0.19120067,-0.4329504,-19.35,20.15625,-23.306252,watch_1
15872179966543,8.212168,-2.4466612,3.854239,0.7037162,0.1924224,-0.25824308,-19.35,20.15625,-23.306252,watch_1
15872204296699,8.212168,-2.4466612,3.854239,0.7037162,0.1924224,-0.25824308,-18.618752,20.118752,-23.94375,watch_1
15872204003314,7.853244,-1.8245273,4.2801614,0.7037162,0.1924224,-0.25824308,-18.618752,20.118752,-23.94375,watch_1
15872214296647,7.853244,-1.8245273,4.2801614,0.59253883,0.18264857,-0.08353576,-20.00625,19.63125,-23.04375,watch_1
15872199040553,7.853244,-1.8245273,4.2801614,0.59253883,0.18264857,-0.08353576,-20.00625,19.63125,-23.04375,watch_1
15872224296595,7.853244,-1.8245273,4.2801614,0.59253883,0.18264857,-0.08353576,-19.125,19.96875,-25.875002,watch_1
15872223076282,8.001599,-2.0590239,4.045665,0.59253883,0.18264857,-0.08353576,-19.125,19.96875,-25.875002,watch_1
15872218113522,8.001599,-2.0590239,4.045665,0.22113305,0.14599667,0.12049308,-19.125,19.96875,-25.875002,watch_1
15872234296543,8.001599,-2.0590239,4.045665,0.22113305,0.14599667,0.12049308,-19.612501,20.71875,-24.562502,watch_1
15872244296491,8.001599,-2.0590239,4.045665,0.22113305,0.14599667,0.12049308,-19.987501,18.84375,-25.143751,watch_1
15872242150293,8.331808,-2.1068804,3.165106,0.067195125,0.16554436,0.33307403,-19.987501,18.84375,-25.143751,watch_1
15872237187532,8.331808,-2.1068804,3.165106,0.067195125,0.16554436,0.33307403,-19.987501,18.84375,-25.143751,watch_1
15872254296439,8.331808,-2.1068804,3.165106,0.067195125,0.16554436,0.33307403,-19.81875,20.118752,-24.225,watch_1
15872264296387,8.331808,-2.1068804,3.165106,0.067195125,0.16554436,0.33307403,-17.38125,19.143751,-23.56875,watch_1
15872261223314,7.795816,-2.4993033,3.4570305,0.23212862,0.23151775,0.51388997,-17.38125,19.143751,-23.56875,watch_1
15872256260553,7.795816,-2.4993033,3.4570305,0.23212862,0.23151775,0.51388997,-17.38125,19.143751,-23.56875,watch_1
15872284296282,7.795816,-2.4993033,3.4570305,0.23212862,0.23151775,0.51388997,-19.237501,18.956251,-25.500002,watch_1
15872274296334,7.795816,-2.4993033,3.4570305,0.23212862,0.23151775,0.51388997,-19.237501,18.956251,-25.500002,watch_1
15872280266282,7.2023964,-2.8390841,4.433302,0.23212862,0.23151775,0.51388997,-19.237501,18.956251,-25.500002,watch_1
15872275303522,7.2023964,-2.8390841,4.433302,0.45692685,0.23396121,0.6189587,-19.237501,18.956251,-25.500002,watch_1
15872294296230,7.2023964,-2.8390841,4.433302,0.45692685,0.23396121,0.6189587,-19.650002,20.268751,-24.075,watch_1
15872304296178,7.2023964,-2.8390841,4.433302,0.45692685,0.23396121,0.6189587,-17.175001,20.0625,-25.81875,watch_1
15872299340293,7.0396843,-2.7816563,5.0889354,0.45692685,0.23396121,0.6189587,-17.175001,20.0625,-25.81875,watch_1
15872294377532,7.0396843,-2.7816563,5.0889354,0.4386009,0.16676609,0.6788235,-17.175001,20.0625,-25.81875,watch_1
15872314296126,7.0396843,-2.7816563,5.0889354,0.4386009,0.16676609,0.6788235,-17.268751,19.66875,-20.98125,watch_1
15872324296074,7.0396843,-2.7816563,5.0889354,0.4386009,0.16676609,0.6788235,-18.975,19.81875,-24.975,watch_1
15872318413314,7.1018977,-3.8297126,5.2899327,0.12339468,0.09834923,0.7619011,-18.975,19.81875,-24.975,watch_1
15872313450553,7.1018977,-3.8297126,5.2899327,0.12339468,0.09834923,0.7619011,-18.975,19.81875,-24.975,watch_1
15872334296022,7.1018977,-3.8297126,5.2899327,0.12339468,0.09834923,0.7619011,-18.150002,19.06875,-24.375002,watch_1
15872344295970,7.1018977,-3.8297126,5.2899327,0.12339468,0.09834923,0.7619011,-17.6625,19.556252,-24.50625,watch_1
15872337487324,7.4656067,-4.3322053,4.730012,0.12339468,0.09834923,0.7619011,-17.6625,19.556252,-24.50625,watch_1
15872332524564,7.4656067,-4.3322053,4.730012,-0.17837252,0.04214967,0.8156572,-17.6625,19.556252,-24.50625,watch_1
15872354295918,7.4656067,-4.3322053,4.730012,-0.17837252,0.04214967,0.8156572,-17.4375,18.393751,-22.2,watch_1
15872364295866,7.4656067,-4.3322053,4.730012,-0.17837252,0.04214967,0.8156572,-17.56875,21.675001,-24.13125,watch_1
15872356560293,7.8149586,-4.62413,4.217948,-0.17837252,0.04214967,0.8156572,-17.56875,21.675001,-24.13125,watch_1
15872351597532,7.8149586,-4.62413,4.217948,-0.49357873,0.04459313,0.8767437,-17.56875,21.675001,-24.13125,watch_1
15872374295814,7.8149586,-4.62413,4.217948,-0.49357873,0.04459313,0.8767437,-14.493751,22.66875,-25.462502,watch_1
15872384295762,7.8149586,-4.62413,4.217948,-0.49357873,0.04459313,0.8767437,-14.812501,22.35,-25.181252,watch_1
15872375634303,7.2550383,-4.3704906,4.859225,-0.7489202,0.059253883,0.8950696,-14.812501,22.35,-25.181252,watch_1
15872370671543,7.2550383,-4.3704906,4.859225,-0.7489202,0.059253883,0.8950696,-14.812501,22.35,-25.181252,watch_1
15872394295709,7.2550383,-4.3704906,4.859225,-0.7489202,0.059253883,0.8950696,-16.725,22.5,-24.112501,watch_1
15872404295657,7.2550383,-4.3704906,4.859225,-0.7489202,0.059253883,0.8950696,-13.725,23.868752,-23.90625,watch_1
15872389744564,7.092326,-3.8201413,5.1415777,-1.075122,-0.034819294,0.9121738,-13.725,23.868752,-23.90625,watch_1
15872394707324,7.092326,-3.8201413,5.1415777,-1.075122,-0.034819294,0.9121738,-13.725,23.868752,-23.90625,watch_1
15872414295605,7.092326,-3.8201413,5.1415777,-1.075122,-0.034819294,0.9121738,-14.531251,23.00625,-21.581251,watch_1
15872413781282,7.5517483,-5.1122656,4.1030927,-1.4220932,-0.1178969,0.992808,-14.531251,23.00625,-21.581251,watch_1
15872408818522,7.5517483,-5.1122656,4.1030927,-1.4220932,-0.1178969,0.992808,-14.531251,23.00625,-21.581251,watch_1
15872424295553,7.5517483,-5.1122656,4.1030927,-1.4220932,-0.1178969,0.992808,-14.2875,22.800001,-23.56875,watch_1
15872434295501,7.5517483,-5.1122656,4.1030927,-1.4220932,-0.1178969,0.992808,-14.3625,21.73125,-20.85,watch_1
15872444295449,7.6331043,-6.6819572,3.0119655,-1.3035854,-0.1423315,1.024573,-15.093751,26.212502,-22.5375,watch_1
15872432854303,7.6331043,-6.6819572,3.0119655,-1.3035854,-0.1423315,1.024573,-15.093751,26.212502,-22.5375,watch_1
15872427891543,7.6331043,-6.6819572,3.0119655,-1.3035854,-0.1423315,1.024573,-15.093751,26.212502,-22.5375,watch_1
15872454295397,7.6331043,-6.6819572,3.0119655,-1.3035854,-0.1423315,1.024573,-14.625001,24.675001,-20.737501,watch_1
15872451928314,7.2215385,-6.270392,2.9976087,-1.3035854,-0.1423315,1.024573,-14.625001,24.675001,-20.737501,watch_1
15872446965553,7.2215385,-6.270392,2.9976087,-0.89064085,-0.12156209,0.95371264,-14.625001,24.675001,-20.737501,watch_1
15872464295345,7.2215385,-6.270392,2.9976087,-0.89064085,-0.12156209,0.95371264,-16.21875,26.437502,-20.5125,watch_1
15872474295293,7.2215385,-6.270392,2.9976087,-0.89064085,-0.12156209,0.95371264,-15.281251,25.575,-20.90625,watch_1
15872466008522,6.666404,-5.337191,3.461816,-0.68050337,-0.12400555,0.90362173,-15.281251,25.575,-20.90625,watch_1
15872470971282,6.666404,-5.337191,3.461816,-0.68050337,-0.12400555,0.90362173,-15.281251,25.575,-20.90625,watch_1
15872484295241,6.666404,-5.337191,3.461816,-0.68050337,-0.12400555,0.90362173,-11.981251,25.575,-20.38125,watch_1
15872494295189,6.666404,-5.337191,3.461816,-0.68050337,-0.12400555,0.90362173,-12.1125,27.112501,-20.831251,watch_1
15872485081543,6.690332,-5.8731833,3.4283166,-0.6817251,-0.17043127,0.8791871,-12.1125,27.112501,-20.831251,watch_1
15872490044303,6.690332,-5.8731833,3.4283166,-0.6817251,-0.17043127,0.8791871,-12.1125,27.112501,-20.831251,watch_1
15872504295137,6.690332,-5.8731833,3.4283166,-0.6817251,-0.17043127,0.8791871,-11.1,26.6625,-19.368752,watch_1
15872514295084,6.690332,-5.8731833,3.4283166,-0.6817251,-0.17043127,0.8791871,-11.90625,28.800001,-19.087502,watch_1
15872509118314,6.8817577,-7.222735,3.1172497,-0.62552553,-0.20708317,0.8156572,-11.90625,28.800001,-19.087502,watch_1
15872504155553,6.8817577,-7.222735,3.1172497,-0.62552553,-0.20708317,0.8156572,-11.90625,28.800001,-19.087502,watch_1
15872524295032,6.8817577,-7.222735,3.1172497,-0.62552553,-0.20708317,0.8156572,-13.218751,27.487501,-18.525002,watch_1
15872534294980,6.8817577,-7.222735,3.1172497,-0.62552553,-0.20708317,0.8156572,-13.25625,27.525002,-20.56875,watch_1
15872528191282,6.920043,-8.213364,3.0693932,-0.41294459,-0.19364414,0.68981904,-13.25625,27.525002,-20.56875,watch_1
15872523228522,6.920043,-8.213364,3.0693932,-0.41294459,-0.19364414,0.68981904,-13.25625,27.525002,-20.56875,watch_1
15872544294928,6.920043,-8.213364,3.0693932,-0.41294459,-0.19364414,0.68981904,-10.9125,28.218752,-18.91875,watch_1
15872554294876,6.920043,-8.213364,3.0693932,-0.41294459,-0.19364414,0.68981904,-11.043751,26.906252,-17.79375,watch_1
15872547264303,6.8243303,-8.663215,3.49053,-0.27366742,-0.13255766,0.5187769,-11.043751,26.906252,-17.79375,watch_1
15872542301543,6.8243303,-8.663215,3.49053,-0.27366742,-0.13255766,0.5187769,-11.043751,26.906252,-17.79375,watch_1
15872564294824,6.8243303,-8.663215,3.49053,-0.27366742,-0.13255766,0.5187769,-10.762501,28.087502,-18.300001,watch_1
15872574294772,6.8243303,-8.663215,3.49053,-0.27366742,-0.13255766,0.5187769,-12.0,28.10625,-20.04375,watch_1
15872566338314,6.9822564,-8.806784,3.854239,-0.17837252,-0.09957096,0.32696536,-12.0,28.10625,-20.04375,watch_1
15872561375553,6.9822564,-8.806784,3.854239,-0.17837252,-0.09957096,0.32696536,-12.0,28.10625,-20.04375,watch_1
15872584294720,6.9822564,-8.806784,3.854239,-0.17837252,-0.09957096,0.32696536,-12.0375,27.50625,-18.54375,watch_1
15872594294668,6.9822564,-8.806784,3.854239,-0.17837252,-0.09957096,0.32696536,-11.887501,26.118752,-19.125,watch_1
15872585411282,7.001399,-8.988638,3.7633119,-0.08185588,-0.07024945,0.14859286,-11.887501,26.118752,-19.125,watch_1
15872580448522,7.001399,-8.988638,3.7633119,-0.08185588,-0.07024945,0.14859286,-11.887501,26.118752,-19.125,watch_1
15872604294616,7.001399,-8.988638,3.7633119,-0.08185588,-0.07024945,0.14859286,-12.281251,28.06875,-19.650002,watch_1
15872614294564,7.001399,-8.988638,3.7633119,-0.08185588,-0.07024945,0.14859286,-12.075001,28.650002,-19.237501,watch_1
15872599522532,6.8482585,-8.825927,3.7920256,0.017104214,-0.05070178,-0.040775225,-12.075001,28.650002,-19.237501,watch_1
15872604485293,6.8482585,-8.825927,3.7920256,0.017104214,-0.05070178,-0.040775225,-12.075001,28.650002,-19.237501,watch_1
15872624294512,6.8482585,-8.825927,3.7920256,0.017104214,-0.05070178,-0.040775225,-11.606251,27.431252,-19.06875,watch_1
15872623558314,6.9296145,-8.347362,3.3804603,0.017104214,-0.05070178,-0.040775225,-11.606251,27.431252,-19.06875,watch_1
15872618595553,6.9296145,-8.347362,3.3804603,0.035430156,-0.03970621,-0.23258677,-12.975,28.687502,-20.212502,watch_1
15872634294459,6.9296145,-8.347362,3.3804603,0.035430156,-0.03970621,-0.23258677,-12.975,28.687502,-20.212502,watch_1
15872644294407,6.9296145,-8.347362,3.3804603,0.035430156,-0.03970621,-0.23258677,-12.356251,27.487501,-20.025002,watch_1
15872637638522,6.9296145,-8.347362,3.3804603,0.13439025,-0.03970621,-0.3620901,-12.356251,27.487501,-20.025002,watch_1
15872654294355,7.1210403,-8.242078,3.0933216,0.13439025,-0.03970621,-0.3620901,-11.475,28.425001,-18.712502,watch_1
15872642601282,7.1210403,-8.242078,3.0933216,0.13439025,-0.03970621,-0.3620901,-11.475,28.425001,-18.712502,watch_1
15872664294303,7.1210403,-8.242078,3.0933216,0.13439025,-0.03970621,-0.3620901,-11.700001,27.825,-18.243752,watch_1
15872661675293,7.207182,-8.175078,2.89711,0.35430157,-0.03604102,-0.45005462,-11.700001,27.825,-18.243752,watch_1
15872656712532,7.207182,-8.175078,2.89711,0.35430157,-0.03604102,-0.45005462,-11.700001,27.825,-18.243752,watch_1
15872674294251,7.207182,-8.175078,2.89711,0.35430157,-0.03604102,-0.45005462,-11.793751,27.13125,-19.2,watch_1
15872684294199,7.207182,-8.175078,2.89711,0.35430157,-0.03604102,-0.45005462,-13.031251,26.85,-20.19375,watch_1
15872680748314,7.068398,-7.237092,3.3756745,0.35430157,-0.03604102,-0.45005462,-13.031251,26.85,-20.19375,watch_1
15872675785553,7.068398,-7.237092,3.3756745,0.66095567,-0.03970621,-0.5539016,-13.031251,26.85,-20.19375,watch_1
15872694294147,7.068398,-7.237092,3.3756745,0.66095567,-0.03970621,-0.5539016,-12.150001,26.831251,-20.53125,watch_1
15872704294095,7.068398,-7.237092,3.3756745,0.66095567,-0.03970621,-0.5539016,-12.525001,28.593752,-19.29375,watch_1
15872694859564,6.9535427,-6.3326054,3.9882371,0.60109097,-0.08124501,-0.65164,-12.525001,28.593752,-19.29375,watch_1
15872699822324,6.9535427,-6.3326054,3.9882371,0.60109097,-0.08124501,-0.65164,-12.525001,28.593752,-19.29375,watch_1
15872714294043,6.9535427,-6.3326054,3.9882371,0.60109097,-0.08124501,-0.65164,-13.837501,27.581251,-20.212502,watch_1
15872724293991,6.9535427,-6.3326054,3.9882371,0.60109097,-0.08124501,-0.65164,-13.9125,25.743752,-20.475,watch_1
15872713932532,6.9535427,-6.3326054,3.9882371,0.21991132,-0.13133593,-0.7310524,-13.9125,25.743752,-20.475,watch_1
15872718895293,7.2263246,-6.873383,3.6053855,0.21991132,-0.13133593,-0.7310524,-13.9125,25.743752,-20.475,watch_1
15872734293939,7.2263246,-6.873383,3.6053855,0.21991132,-0.13133593,-0.7310524,-13.368751,27.618752,-18.712502,watch_1
15872744293887,7.2263246,-6.873383,3.6053855,0.21991132,-0.13133593,-0.7310524,-13.462501,26.906252,-19.368752,watch_1
15872733006543,7.4943204,-7.643872,3.3373895,0.10384701,-0.11423171,-0.8153518,-13.462501,26.906252,-19.368752,watch_1
15872737969303,7.4943204,-7.643872,3.3373895,0.10384701,-0.11423171,-0.8153518,-14.512501,24.243752,-19.95,watch_1
15872754293834,7.4943204,-7.643872,3.3373895,0.10384701,-0.11423171,-0.8153518,-13.762501,23.868752,-18.09375,watch_1
15872757042324,7.4416785,-7.6678,3.423531,0.10384701,-0.11423171,-0.8153518,-13.762501,23.868752,-18.09375,watch_1
15872764293782,7.4416785,-7.6678,3.423531,0.27977607,-0.09468404,-0.9411899,-13.762501,23.868752,-18.09375,watch_1
15872752079564,7.4416785,-7.6678,3.423531,0.27977607,-0.09468404,-0.9411899,-13.762501,23.868752,-18.09375,watch_1
15872774293730,7.4416785,-7.6678,3.423531,0.27977607,-0.09468404,-0.9411899,-14.156251,22.63125,-15.543751,watch_1
15872784293678,7.5756764,-6.1842504,3.6867416,0.27977607,-0.09468404,-0.9411899,-14.156251,22.63125,-15.543751,watch_1
15872771153522,7.5756764,-6.1842504,3.6867416,0.5742129,-0.10445788,-1.021824,-14.156251,21.54375,-15.8625,watch_1
15872794293626,7.5756764,-6.1842504,3.6867416,0.5742129,-0.10445788,-1.021824,-14.700001,22.2,-18.31875,watch_1
15872804293574,7.5756764,-6.1842504,3.6867416,0.5742129,-0.10445788,-1.021824,-14.700001,22.2,-18.31875,watch_1
15872776116282,7.5756764,-6.1842504,3.6867416,0.5742129,-0.10445788,-1.021824,-14.700001,22.2,-18.31875,watch_1
15872795189303,7.6570325,-4.8442693,3.8925242,0.5192351,-0.11056653,-1.0254892,-14.700001,22.2,-18.31875,watch_1
15872814293522,7.6570325,-4.8442693,3.8925242,0.5192351,-0.11056653,-1.0254892,-16.181252,22.59375,-19.25625,watch_1
15872790226543,7.6570325,-4.8442693,3.8925242,0.5192351,-0.11056653,-1.0254892,-16.181252,22.59375,-19.25625,watch_1
15872814263314,7.776674,-4.901697,3.3326037,0.09651663,-0.11911863,-0.981507,-15.450001,19.06875,-15.4875,watch_1
15872824293470,7.776674,-4.901697,3.3326037,0.09651663,-0.11911863,-0.981507,-15.450001,19.06875,-15.4875,watch_1
15872809300553,7.776674,-4.901697,3.3326037,0.09651663,-0.11911863,-0.981507,-15.450001,19.06875,-15.4875,watch_1
15872834293418,7.776674,-4.901697,3.3326037,0.09651663,-0.11911863,-0.981507,-12.69375,19.893751,-17.1375,watch_1
15872828343522,7.776674,-4.901697,3.3326037,-0.11117739,-0.12156209,-0.9436334,-19.3125,22.63125,-19.63125,watch_1
15872844293366,7.661818,-5.4089756,2.8492537,-0.11117739,-0.12156209,-0.9436334,-19.3125,22.63125,-19.63125,watch_1
15872833306282,7.661818,-5.4089756,2.8492537,-0.11117739,-0.12156209,-0.9436334,-19.3125,22.63125,-19.63125,watch_1
15872854293314,7.661818,-5.4089756,2.8492537,-0.11117739,-0.12156209,-0.9436334,-17.4375,21.54375,-17.118752,watch_1
15872847416543,7.661818,-5.4089756,2.8492537,-0.07941242,-0.10445788,-0.9204205,-17.4375,21.54375,-17.118752,watch_1
15872864293262,7.661818,-5.4089756,2.8492537,-0.07941242,-0.10445788,-0.9204205,-17.737501,22.29375,-21.300001,watch_1
15872852379303,7.7910304,-4.6002016,2.7678976,-0.07941242,-0.10445788,-0.9204205,-17.737501,22.29375,-21.300001,watch_1
15872874293209,7.7910304,-4.6002016,2.7678976,-0.07941242,-0.10445788,-0.9204205,-17.868752,22.087502,-19.125,watch_1
15872871453314,7.7383885,-3.8823547,3.2081769,-0.07941242,-0.10445788,-0.9204205,-17.868752,22.087502,-19.125,watch_1
15872866490553,7.7383885,-3.8823547,3.2081769,-0.0012217296,-0.09590577,-0.845895,-17.868752,22.087502,-19.125,watch_1
15872884293157,7.7383885,-3.8823547,3.2081769,-0.0012217296,-0.09590577,-0.845895,-18.112501,21.525002,-20.831251,watch_1
15872894293105,7.7383885,-3.8823547,3.2081769,-0.0012217296,-0.09590577,-0.845895,-19.650002,21.0375,-19.95,watch_1
15872890526282,7.771888,-3.7866418,3.3804603,-0.018325943,-0.09468404,-0.73960453,-19.650002,21.0375,-19.95,watch_1
15872885563522,7.771888,-3.7866418,3.3804603,-0.018325943,-0.09468404,-0.73960453,-19.650002,21.0375,-19.95,watch_1
15872904293053,7.771888,-3.7866418,3.3804603,-0.018325943,-0.09468404,-0.73960453,-20.98125,21.150002,-20.550001,watch_1
15872914293001,7.771888,-3.7866418,3.3804603,-0.018325943,-0.09468404,-0.73960453,-18.0,22.2,-18.5625,watch_1
15872909600293,7.82453,-3.4133615,3.0693932,-0.018325943,-0.09468404,-0.73960453,-18.0,22.2,-18.5625,watch_1
15872904637532,7.82453,-3.4133615,3.0693932,-0.07696896,-0.07880156,-0.62964886,-18.0,22.2,-18.5625,watch_1
15872924292949,7.82453,-3.4133615,3.0693932,-0.07696896,-0.07880156,-0.62964886,-18.0,22.2,-18.5625,watch_1
15872934292897,7.82453,-3.4133615,3.0693932,-0.07696896,-0.07880156,-0.62964886,-20.19375,22.96875,-20.925001,watch_1
15872928673314,8.1738825,-2.934797,2.8779674,-0.07696896,-0.07880156,-0.62964886,-20.19375,22.96875,-20.925001,watch_1
15872923710553,8.1738825,-2.934797,2.8779674,-0.07086031,-0.045814857,-0.48792824,-20.19375,22.96875,-20.925001,watch_1
15872944292845,8.1738825,-2.934797,2.8779674,-0.07086031,-0.045814857,-0.48792824,-18.975,22.0125,-21.84375,watch_1
15872954292793,8.1738825,-2.934797,2.8779674,-0.07086031,-0.045814857,-0.48792824,-18.975,22.0125,-21.84375,watch_1
15872942784564,8.279166,-2.585445,2.6769702,-0.0024434591,-0.010384701,-0.32788166,-18.975,22.0125,-21.84375,watch_1
15872947747324,8.279166,-2.585445,2.6769702,-0.0024434591,-0.010384701,-0.32788166,-18.975,22.0125,-21.84375,watch_1
15872964292741,8.279166,-2.585445,2.6769702,-0.0024434591,-0.010384701,-0.32788166,-18.862501,21.431252,-20.625,watch_1
15872974292689,8.279166,-2.585445,2.6769702,-0.0024434591,-0.010384701,-0.32788166,-20.081251,20.025002,-21.6375,watch_1
15872961857532,8.035098,-3.0065815,2.7391837,0.13439025,-0.0030543238,-0.17394374,-20.081251,20.025002,-21.6375,watch_1
15872966820293,8.035098,-3.0065815,2.7391837,0.13439025,-0.0030543238,-0.17394374,-20.081251,20.025002,-21.6375,watch_1
15872984292637,8.035098,-3.0065815,2.7391837,0.13439025,-0.0030543238,-0.17394374,-19.612501,22.9125,-21.28125,watch_1
15872994292584,8.035098,-3.0065815,2.7391837,0.13439025,-0.0030543238,-0.17394374,-18.7875,20.737501,-20.400002,watch_1
15872985894303,8.006385,-3.2745779,2.7296124,0.33108872,-0.011606431,-0.05299252,-18.7875,20.737501,-20.400002,watch_1
15872980931543,8.006385,-3.2745779,2.7296124,0.33108872,-0.011606431,-0.05299252,-18.7875,20.737501,-20.400002,watch_1
15873004292532,8.006385,-3.2745779,2.7296124,0.33108872,-0.011606431,-0.05299252,-19.331251,22.96875,-22.706251,watch_1
15873014292480,8.006385,-3.2745779,2.7296124,0.33108872,-0.011606431,-0.05299252,-18.9375,20.868752,-21.300001,watch_1
15872999974564,7.8628154,-2.6620152,3.141178,0.4801397,0.0018325944,0.06429352,-20.5125,21.50625,-21.243752,watch_1
15873004937324,7.8628154,-2.6620152,3.141178,0.4801397,0.0018325944,0.06429352,-20.5125,21.50625,-21.243752,watch_1
15873024292428,7.8628154,-2.6620152,3.141178,0.4801397,0.0018325944,0.06429352,-20.5125,21.50625,-21.243752,watch_1
15873024010293,7.652247,-2.475375,3.3613176,0.4801397,0.0018325944,0.06429352,-20.5125,21.50625,-21.243752,watch_1
15873019047532,7.652247,-2.475375,3.3613176,0.31642795,0.022601997,0.19379686,-20.5125,21.50625,-21.243752,watch_1
15873034292376,7.652247,-2.475375,3.3613176,0.31642795,0.022601997,0.19379686,-20.04375,21.88125,-21.956251,watch_1
15873044292324,7.652247,-2.475375,3.3613176,0.31642795,0.022601997,0.19379686,-18.375,21.7875,-20.737501,watch_1
15873043084303,7.556534,-2.6907291,3.3278182,0.015882485,0.020158539,0.3110829,-18.375,21.7875,-20.737501,watch_1
15873038121543,7.556534,-2.6907291,3.3278182,0.015882485,0.020158539,0.3110829,-18.375,21.7875,-20.737501,watch_1
15873054292272,7.556534,-2.6907291,3.3278182,0.015882485,0.020158539,0.3110829,-19.875,22.03125,-21.806252,watch_1
15873064292220,7.556534,-2.6907291,3.3278182,0.015882485,0.020158539,0.3110829,-19.875,22.03125,-21.806252,watch_1
15873062157324,7.795816,-2.4658036,3.0933216,0.015882485,0.020158539,0.3110829,-19.875,22.03125,-21.806252,watch_1
15873057194564,7.795816,-2.4658036,3.0933216,-0.12705988,-0.0006108648,0.4405862,-19.875,22.03125,-21.806252,watch_1
15873074292168,7.795816,-2.4658036,3.0933216,-0.12705988,-0.0006108648,0.4405862,-19.48125,21.69375,-23.19375,watch_1
15873084292116,7.795816,-2.4658036,3.0933216,-0.12705988,-0.0006108648,0.4405862,-18.525002,21.900002,-20.625,watch_1
15873081231282,7.9346,-3.1262228,2.9066813,-0.12705988,-0.0006108648,0.4405862,-18.525002,21.900002,-20.625,watch_1
15873076268522,7.9346,-3.1262228,2.9066813,-0.08429934,0.028710645,0.6458368,-18.525002,21.900002,-20.625,watch_1
15873094292064,7.9346,-3.1262228,2.9066813,-0.08429934,0.028710645,0.6458368,-18.69375,23.175001,-22.087502,watch_1
15873104292012,7.9346,-3.1262228,2.9066813,-0.08429934,0.028710645,0.6458368,-18.69375,23.175001,-22.087502,watch_1
15873100304303,7.661818,-3.7387853,2.925824,0.12583815,0.091018856,0.8535308,-18.69375,23.175001,-22.087502,watch_1
15873095341543,7.661818,-3.7387853,2.925824,0.12583815,0.091018856,0.8535308,-18.69375,23.175001,-22.087502,watch_1
15873114291959,7.661818,-3.7387853,2.925824,0.12583815,0.091018856,0.8535308,-18.150002,21.5625,-22.575,watch_1
15873124291907,7.661818,-3.7387853,2.925824,0.12583815,0.091018856,0.8535308,-17.94375,23.2875,-22.44375,watch_1
15873114415553,7.446464,-3.6430724,3.3373895,0.25534147,0.12156209,0.96715164,-17.831251,22.85625,-21.50625,watch_1
15873119378314,7.446464,-3.6430724,3.3373895,0.25534147,0.12156209,0.96715164,-17.831251,22.85625,-21.50625,watch_1
15873134291855,7.446464,-3.6430724,3.3373895,0.25534147,0.12156209,0.96715164,-17.831251,22.85625,-21.50625,watch_1
15873144291803,7.446464,-3.6430724,3.3373895,0.25534147,0.12156209,0.96715164,-16.575,23.456251,-21.5625,watch_1
15873133488522,7.446464,-3.6430724,3.3373895,0.11606431,0.11178826,1.0184643,-16.575,23.456251,-21.5625,watch_1
15873154291751,7.1066833,-3.3990045,3.8015969,0.11606431,0.11178826,1.0184643,-18.993752,21.712502,-21.54375,watch_1
15873138451282,7.1066833,-3.3990045,3.8015969,0.11606431,0.11178826,1.0184643,-18.993752,21.712502,-21.54375,watch_1
15873164291699,7.1066833,-3.3990045,3.8015969,-0.14416409,0.07024945,1.0416771,-17.6625,24.45,-22.237501,watch_1
15873152561543,7.1066833,-3.3990045,3.8015969,-0.14416409,0.07024945,1.0416771,-17.6625,24.45,-22.237501,watch_1
15873157524303,7.135397,-3.542574,3.4187453,-0.14416409,0.07024945,1.0416771,-17.6625,24.45,-22.237501,watch_1
15873174291647,7.135397,-3.542574,3.4187453,-0.14416409,0.07024945,1.0416771,-15.825001,23.25,-20.737501,watch_1
15873184291595,7.135397,-3.542574,3.4187453,-0.14416409,0.07024945,1.0416771,-15.39375,24.2625,-19.78125,watch_1
15873176598314,6.9248285,-3.839284,3.2703903,-0.14416409,0.07024945,1.0416771,-15.39375,24.2625,-19.78125,watch_1
15873194291543,6.9248285,-3.839284,3.2703903,-0.2932151,0.034819294,1.083216,-16.612501,24.281252,-20.79375,watch_1
15873171635553,6.9248285,-3.839284,3.2703903,-0.2932151,0.034819294,1.083216,-16.612501,24.281252,-20.79375,watch_1
15873204291491,6.9248285,-3.839284,3.2703903,-0.2932151,0.034819294,1.083216,-16.10625,24.900002,-20.925001,watch_1
15873195641282,6.8051877,-5.6913285,2.6626134,-0.2932151,0.034819294,1.083216,-16.10625,24.900002,-20.925001,watch_1
15873190678522,6.8051877,-5.6913285,2.6626134,-0.32375833,0.011606431,1.1076505,-16.10625,24.900002,-20.925001,watch_1
15873214291439,6.8051877,-5.6913285,2.6626134,-0.32375833,0.011606431,1.1076505,-14.94375,24.487501,-20.90625,watch_1
15873214714303,6.8865438,-6.4905314,2.801397,-0.100181825,0.055588696,1.0135773,-14.906251,24.768751,-20.34375,watch_1
15873209751543,6.8865438,-6.4905314,2.801397,-0.100181825,0.055588696,1.0135773,-14.906251,24.768751,-20.34375,watch_1
15873224291387,6.8865438,-6.4905314,2.801397,-0.100181825,0.055588696,1.0135773,-14.906251,24.768751,-20.34375,watch_1
15873234291334,6.8865438,-6.4905314,2.801397,-0.100181825,0.055588696,1.0135773,-14.400001,24.0,-20.643751,watch_1
15873233788314,6.8051877,-6.586244,3.6293137,-0.100181825,0.055588696,1.0135773,-14.400001,24.0,-20.643751,watch_1
15873228825553,6.8051877,-6.586244,3.6293137,0.02443459,0.10690133,0.88773924,-14.400001,24.0,-20.643751,watch_1
15873244291282,6.8051877,-6.586244,3.6293137,0.02443459,0.10690133,0.88773924,-14.3625,25.85625,-21.69375,watch_1
15873254291230,6.8051877,-6.586244,3.6293137,0.02443459,0.10690133,0.88773924,-13.35,23.8125,-18.91875,watch_1
15873247898522,6.8051877,-6.586244,3.6293137,-0.11606431,0.108123064,0.79244435,-13.312501,27.281252,-22.29375,watch_1
15873264291178,6.8051877,-6.586244,3.6293137,-0.11606431,0.108123064,0.79244435,-13.312501,27.281252,-22.29375,watch_1
15873252861282,7.082755,-6.442675,4.1222353,-0.11606431,0.108123064,0.79244435,-12.7875,26.306252,-20.118752,watch_1
15873274291126,7.082755,-6.442675,4.1222353,-0.11606431,0.108123064,0.79244435,-12.7875,26.306252,-20.118752,watch_1
15873284291074,7.082755,-6.442675,4.1222353,-0.31520623,0.054366965,0.75945765,-12.356251,26.400002,-21.375,watch_1
15873266972532,7.082755,-6.442675,4.1222353,-0.31520623,0.054366965,0.75945765,-12.356251,26.400002,-21.375,watch_1
15873271935293,7.1306114,-6.930811,4.1318064,-0.31520623,0.054366965,0.75945765,-12.356251,26.400002,-21.375,watch_1
15873294291022,7.1306114,-6.930811,4.1318064,-0.31520623,0.054366965,0.75945765,-12.356251,26.400002,-21.375,watch_1
15873291008314,6.9583282,-7.55773,4.074379,-0.31520623,0.054366965,0.75945765,-12.356251,26.400002,-21.375,watch_1
15873286045553,6.9583282,-7.55773,4.074379,-0.43615746,-0.017715078,0.71058846,-12.356251,26.400002,-21.375,watch_1
15873304290970,6.9583282,-7.55773,4.074379,-0.43615746,-0.017715078,0.71058846,-12.1125,26.00625,-21.6,watch_1
15873314290918,6.9583282,-7.55773,4.074379,-0.43615746,-0.017715078,0.71058846,-11.8125,27.150002,-20.23125,watch_1
15873310082324,6.8578296,-8.347362,3.7968113,-0.43615746,-0.017715078,0.71058846,-11.8125,27.150002,-20.23125,watch_1
15873305119564,6.8578296,-8.347362,3.7968113,-0.6194169,-0.055588696,0.59818935,-11.8125,27.150002,-20.23125,watch_1
15873324290866,6.8578296,-8.347362,3.7968113,-0.6194169,-0.055588696,0.59818935,-11.681251,26.718752,-19.29375,watch_1
15873334290814,6.8578296,-8.347362,3.7968113,-0.6194169,-0.055588696,0.59818935,-13.275001,27.225,-19.81875,watch_1
15873324192532,7.0636125,-8.88814,3.7298124,-0.6902772,-0.058032155,0.4405862,-13.275001,27.225,-19.81875,watch_1
15873329155293,7.0636125,-8.88814,3.7298124,-0.6902772,-0.058032155,0.4405862,-13.275001,27.225,-19.81875,watch_1
15873344290762,7.0636125,-8.88814,3.7298124,-0.6902772,-0.058032155,0.4405862,-10.837501,26.268751,-19.29375,watch_1
15873354290709,7.0636125,-8.88814,3.7298124,-0.6902772,-0.058032155,0.4405862,-12.075001,25.650002,-17.925001,watch_1
15873343266543,7.245467,-9.337991,3.6340995,-0.64262974,-0.028710645,0.27320927,-12.075001,25.650002,-17.925001,watch_1
15873348229303,7.245467,-9.337991,3.6340995,-0.64262974,-0.028710645,0.27320927,-12.075001,25.650002,-17.925001,watch_1
15873364290657,7.245467,-9.337991,3.6340995,-0.64262974,-0.028710645,0.27320927,-11.90625,26.1375,-19.837502,watch_1
15873374290605,7.245467,-9.337991,3.6340995,-0.64262974,-0.028710645,0.27320927,-10.837501,27.50625,-18.2625,watch_1
15873367272324,7.1976104,-9.582058,2.8492537,-0.64262974,-0.028710645,0.27320927,-10.837501,27.50625,-18.2625,watch_1
15873362309564,7.1976104,-9.582058,2.8492537,-0.40683594,-0.0067195124,0.099723674,-10.837501,27.50625,-18.2625,watch_1
15873384290553,7.1976104,-9.582058,2.8492537,-0.40683594,-0.0067195124,0.099723674,-11.887501,27.375002,-18.375,watch_1
15873386345293,6.71426,-8.687142,3.437888,-0.40683594,-0.0067195124,0.099723674,-10.9875,28.7625,-18.393751,watch_1
15873394290501,6.71426,-8.687142,3.437888,-0.40683594,-0.0067195124,0.099723674,-10.9875,28.7625,-18.393751,watch_1
15873381382532,6.71426,-8.687142,3.437888,0.068416856,0.03970621,-0.07009673,-10.9875,28.7625,-18.393751,watch_1
15873404290449,6.71426,-8.687142,3.437888,0.068416856,0.03970621,-0.07009673,-12.225,25.800001,-19.125,watch_1
15873414290397,6.71426,-8.687142,3.437888,0.068416856,0.03970621,-0.07009673,-12.562501,28.29375,-19.25625,watch_1
15873405419303,6.7429743,-8.768498,3.0789645,0.29932374,0.05070178,-0.23869541,-12.562501,28.29375,-19.25625,watch_1
15873400456543,6.7429743,-8.768498,3.0789645,0.29932374,0.05070178,-0.23869541,-12.562501,28.29375,-19.25625,watch_1
15873424290345,6.7429743,-8.768498,3.0789645,0.29932374,0.05070178,-0.23869541,-12.7875,26.2875,-19.3875,watch_1
15873434290293,6.8195443,-8.55793,2.9736803,0.29932374,0.05070178,-0.23869541,-11.868751,26.587502,-20.475,watch_1
15873424492324,6.8195443,-8.55793,2.9736803,0.29932374,0.05070178,-0.23869541,-11.868751,26.587502,-20.475,watch_1
15873419529564,6.8195443,-8.55793,2.9736803,0.5900954,0.09834923,-0.4243983,-11.868751,26.587502,-20.475,watch_1
15873444290241,6.8195443,-8.55793,2.9736803,0.5900954,0.09834923,-0.4243983,-12.243751,25.81875,-20.4375,watch_1
15873443566282,6.991828,-8.103293,3.8494534,0.8466586,0.13255766,-0.5844449,-12.243751,25.81875,-20.4375,watch_1
15873438603522,6.991828,-8.103293,3.8494534,0.8466586,0.13255766,-0.5844449,-12.243751,25.81875,-20.4375,watch_1
15873454290189,6.991828,-8.103293,3.8494534,0.8466586,0.13255766,-0.5844449,-12.618751,27.900002,-20.25,watch_1
15873464290137,6.991828,-8.103293,3.8494534,0.8466586,0.13255766,-0.5844449,-12.168751,27.956251,-20.775002,watch_1
15873457676543,6.991828,-8.103293,3.8494534,0.75502884,0.11911863,-0.74204797,-12.168751,27.956251,-20.775002,watch_1
15873474290084,6.991828,-8.103293,3.8494534,0.75502884,0.11911863,-0.74204797,-10.96875,27.975,-20.79375,watch_1
15873462639303,6.853044,-8.050652,4.098307,0.75502884,0.11911863,-0.74204797,-10.96875,27.975,-20.79375,watch_1
15873484290032,6.853044,-8.050652,4.098307,0.75502884,0.11911863,-0.74204797,-12.0,25.593752,-21.69375,watch_1
15873481713314,7.0731835,-7.500303,4.2705903,0.75502884,0.11911863,-0.74204797,-12.0,25.593752,-21.69375,watch_1
15873476750553,7.0731835,-7.500303,4.2705903,0.67928165,0.077579826,-0.87155133,-12.0,25.593752,-21.69375,watch_1
15873494289980,7.0731835,-7.500303,4.2705903,0.67928165,0.077579826,-0.87155133,-13.406251,26.56875,-22.237501,watch_1
15873504289928,7.0731835,-7.500303,4.2705903,0.67928165,0.077579826,-0.87155133,-13.406251,26.56875,-22.237501,watch_1
15873495823522,7.082755,-7.021738,4.0121655,0.52656543,0.051923506,-0.98761564,-13.406251,26.56875,-22.237501,watch_1
15873500786282,7.082755,-7.021738,4.0121655,0.52656543,0.051923506,-0.98761564,-13.406251,26.56875,-22.237501,watch_1
15873514289876,7.082755,-7.021738,4.0121655,0.52656543,0.051923506,-0.98761564,-12.76875,24.075,-21.337502,watch_1
15873524289824,7.082755,-7.021738,4.0121655,0.52656543,0.051923506,-0.98761564,-14.306251,22.5,-22.96875,watch_1
15873519860293,7.408179,-6.437889,3.4953158,0.52656543,0.051923506,-0.98761564,-14.306251,22.5,-22.96875,watch_1
15873514897532,7.408179,-6.437889,3.4953158,0.4459313,0.043371398,-1.0462587,-14.306251,22.5,-22.96875,watch_1
15873534289772,7.408179,-6.437889,3.4953158,0.4459313,0.043371398,-1.0462587,-12.7875,24.093752,-22.368752,watch_1
15873544289720,7.408179,-6.437889,3.4953158,0.4459313,0.043371398,-1.0462587,-13.762501,20.56875,-21.975,watch_1
15873538933314,7.3172517,-6.050252,3.949952,0.47403106,0.07269291,-1.093906,-13.762501,20.56875,-21.975,watch_1
15873533970553,7.3172517,-6.050252,3.949952,0.47403106,0.07269291,-1.093906,-13.762501,20.56875,-21.975,watch_1
15873554289668,7.3172517,-6.050252,3.949952,0.47403106,0.07269291,-1.093906,-15.1125,24.656252,-22.837502,watch_1
15873564289616,7.3172517,-6.050252,3.949952,0.47403106,0.07269291,-1.093906,-14.493751,24.54375,-20.85,watch_1
15873557976282,7.460821,-5.605187,4.074379,0.375071,0.026267186,-1.1733185,-14.493751,24.54375,-20.85,watch_1
15873553013522,7.460821,-5.605187,4.074379,0.375071,0.026267186,-1.1733185,-14.493751,24.54375,-20.85,watch_1
15873574289564,7.460821,-5.605187,4.074379,0.375071,0.026267186,-1.1733185,-16.25625,23.8125,-23.306252,watch_1
15873584289512,7.460821,-5.605187,4.074379,0.375071,0.026267186,-1.1733185,-15.13125,23.25,-23.56875,watch_1
15873577050293,7.9680996,-5.7726846,3.7824545,0.2773326,-0.04092794,-1.2234094,-15.13125,23.25,-23.56875,watch_1
15873572087532,7.9680996,-5.7726846,3.7824545,0.2773326,-0.04092794,-1.2234094,-15.13125,23.25,-23.56875,watch_1
15873594289459,7.9680996,-5.7726846,3.7824545,0.2773326,-0.04092794,-1.2234094,-16.518751,22.612501,-21.618752,watch_1
15873604289407,7.9680996,-5.7726846,3.7824545,0.2773326,-0.04092794,-1.2234094,-18.431252,21.84375,-23.5125,watch_1
15873596123314,7.7383885,-5.2701917,4.045665,0.2773326,-0.04092794,-1.2234094,-18.431252,21.84375,-23.5125,watch_1
15873591160553,7.7383885,-5.2701917,4.045665,0.32253662,-0.04092794,-1.2429571,-18.431252,21.84375,-23.5125,watch_1
15873614289355,7.7383885,-5.2701917,4.045665,0.32253662,-0.04092794,-1.2429571,-18.4125,21.806252,-22.050001,watch_1
15873624289303,7.7383885,-5.2701917,4.045665,0.32253662,-0.04092794,-1.2429571,-18.84375,20.79375,-23.456251,watch_1
15873610234564,7.322037,-3.9684963,4.395017,0.34941465,-0.051923506,-1.1769837,-18.84375,20.79375,-23.456251,watch_1
15873615197324,7.322037,-3.9684963,4.395017,0.34941465,-0.051923506,-1.1769837,-18.84375,20.79375,-23.456251,watch_1
15873634289251,7.322037,-3.9684963,4.395017,0.34941465,-0.051923506,-1.1769837,-17.475,20.962502,-22.875,watch_1
15873644289199,7.322037,-3.9684963,4.395017,0.34941465,-0.051923506,-1.1769837,-17.04375,17.56875,-20.475,watch_1
15873629307532,7.322037,-3.9684963,4.395017,0.23701553,-0.08002329,-1.0487021,-17.04375,17.56875,-20.475,watch_1
15873634270293,7.9920278,-2.9587252,3.1603205,0.23701553,-0.08002329,-1.0487021,-17.04375,17.56875,-20.475,watch_1
15873654289147,7.9920278,-2.9587252,3.1603205,0.23701553,-0.08002329,-1.0487021,-18.73125,18.7875,-21.806252,watch_1
15873648381543,7.9298143,-3.001796,3.00718,0.32253662,-0.029932374,-0.8972076,-18.73125,18.7875,-21.806252,watch_1
15873653344303,7.9298143,-3.001796,3.00718,0.32253662,-0.029932374,-0.8972076,-18.73125,18.7875,-21.806252,watch_1
15873664289095,7.9298143,-3.001796,3.00718,0.32253662,-0.029932374,-0.8972076,-19.143751,19.143751,-21.45,watch_1
15873674289043,7.9298143,-3.001796,3.00718,0.32253662,-0.029932374,-0.8972076,-18.487501,16.650002,-19.96875,watch_1
15873672417324,8.039884,-2.4801607,3.2703903,0.32253662,-0.029932374,-0.8972076,-18.487501,16.650002,-19.96875,watch_1
15873667454564,8.039884,-2.4801607,3.2703903,0.51068294,0.0006108648,-0.72616553,-18.35625,18.13125,-21.393751,watch_1
15873684288991,8.039884,-2.4801607,3.2703903,0.51068294,0.0006108648,-0.72616553,-18.35625,18.13125,-21.393751,watch_1
15873694288939,8.039884,-2.4801607,3.2703903,0.51068294,0.0006108648,-0.72616553,-21.7875,18.581251,-23.71875,watch_1
15873691491282,8.207381,-1.7240287,3.3900316,0.62796897,0.018936807,-0.50014555,-21.7875,18.581251,-23.71875,watch_1
15873686528522,8.207381,-1.7240287,3.3900316,0.62796897,0.018936807,-0.50014555,-21.7875,18.581251,-23.71875,watch_1
15873704288887,8.207381,-1.7240287,3.3900316,0.62796897,0.018936807,-0.50014555,-19.893751,19.3875,-23.587502,watch_1
15873714288834,7.9011,-1.3316058,3.4283166,0.62796897,0.018936807,-0.50014555,-19.35,19.03125,-23.925001,watch_1
15873705601543,7.9011,-1.3316058,3.4283166,0.5204568,0.049480047,-0.23136504,-19.35,19.03125,-23.925001,watch_1
15873710564303,7.9011,-1.3316058,3.4283166,0.5204568,0.049480047,-0.23136504,-19.35,19.03125,-23.925001,watch_1
15873724288782,7.9011,-1.3316058,3.4283166,0.5204568,0.049480047,-0.23136504,-20.306252,18.337502,-23.25,watch_1
15873734288730,7.9011,-1.3316058,3.4283166,0.5204568,0.049480047,-0.23136504,-20.362501,18.075,-24.825,watch_1
15873729607324,7.5661054,-1.3794622,3.5623147,0.2614501,0.053145237,0.011759147,-20.362501,18.075,-24.825,watch_1
15873724644564,7.5661054,-1.3794622,3.5623147,0.2614501,0.053145237,0.011759147,-20.362501,18.075,-24.825,watch_1
15873744288678,7.5661054,-1.3794622,3.5623147,0.2614501,0.053145237,0.011759147,-19.0125,20.962502,-25.66875,watch_1
15873754288626,7.5661054,-1.3794622,3.5623147,0.2614501,0.053145237,0.011759147,-19.1625,18.075,-24.243752,watch_1
15873748680293,7.408179,-1.9010975,3.5096726,0.07208204,0.032375835,0.1669188,-19.1625,18.075,-24.243752,watch_1
15873743717532,7.408179,-1.9010975,3.5096726,0.07208204,0.032375835,0.1669188,-19.1625,18.075,-24.243752,watch_1
15873764288574,7.408179,-1.9010975,3.5096726,0.07208204,0.032375835,0.1669188,-22.21875,18.993752,-26.00625,watch_1
15873774288522,7.408179,-1.9010975,3.5096726,0.07208204,0.032375835,0.1669188,-20.325,18.375,-24.843752,watch_1
15873767754303,7.4943204,-1.9393828,3.734598,0.021991132,0.033597562,0.27320927,-20.325,18.375,-24.843752,watch_1
15873762791543,7.4943204,-1.9393828,3.734598,0.021991132,0.033597562,0.27320927,-20.325,18.375,-24.843752,watch_1
15873784288470,7.4943204,-1.9393828,3.734598,0.021991132,0.033597562,0.27320927,-20.4375,17.025002,-22.6875,watch_1
15873794288418,7.4943204,-1.9393828,3.734598,0.021991132,0.033597562,0.27320927,-19.087502,18.825,-25.331251,watch_1
15873786827324,7.594819,-2.2695923,3.3756745,0.014660755,0.04703659,0.4063778,-19.087502,18.825,-25.331251,watch_1
15873781864564,7.594819,-2.2695923,3.3756745,0.014660755,0.04703659,0.4063778,-19.087502,18.825,-25.331251,watch_1
15873804288366,7.594819,-2.2695923,3.3756745,0.014660755,0.04703659,0.4063778,-18.31875,20.325,-25.10625,watch_1
15873814288314,7.594819,-2.2695923,3.3756745,0.014660755,0.04703659,0.4063778,-18.993752,18.2625,-24.975,watch_1
15873805901282,7.408179,-2.111666,3.610171,0.014660755,0.04703659,0.4063778,-18.993752,18.2625,-24.975,watch_1
15873800938522,7.408179,-2.111666,3.610171,0.067195125,0.07880156,0.5505419,-18.993752,18.2625,-24.975,watch_1
15873824288262,7.408179,-2.111666,3.610171,0.067195125,0.07880156,0.5505419,-17.400002,22.0125,-25.0125,watch_1
15873834288209,7.408179,-2.111666,3.610171,0.067195125,0.07880156,0.5505419,-19.143751,18.075,-23.5125,watch_1
15873820011543,7.1976104,-2.1068804,4.1844487,-0.03176497,0.10079269,0.6849321,-19.143751,18.075,-23.5125,watch_1
15873824974303,7.1976104,-2.1068804,4.1844487,-0.03176497,0.10079269,0.6849321,-19.143751,18.075,-23.5125,watch_1
15873844288157,7.1976104,-2.1068804,4.1844487,-0.03176497,0.10079269,0.6849321,-17.94375,18.075,-23.23125,watch_1
15873844048314,7.1210403,-2.7912276,4.4285164,-0.03176497,0.10079269,0.6849321,-17.94375,18.075,-23.23125,watch_1
15873839085553,7.1210403,-2.7912276,4.4285164,-0.24068072,0.10690133,0.8022182,-17.04375,17.868752,-21.50625,watch_1
15873854288105,7.1210403,-2.7912276,4.4285164,-0.24068072,0.10690133,0.8022182,-17.04375,17.868752,-21.50625,watch_1
15873864288053,7.1210403,-2.7912276,4.4285164,-0.24068072,0.10690133,0.8022182,-18.73125,19.10625,-23.2875,watch_1
15873858158522,7.1210403,-2.7912276,4.4285164,-0.26389357,0.09834923,0.8999565,-18.73125,19.10625,-23.2875,watch_1
15873874288001,7.1210403,-2.7912276,4.4285164,-0.26389357,0.09834923,0.8999565,-16.931252,19.050001,-23.362501,watch_1
15873863121282,7.389036,-3.0879376,4.639085,-0.26389357,0.09834923,0.8999565,-16.931252,19.050001,-23.362501,watch_1
15873884287949,7.389036,-3.0879376,4.639085,-0.26389357,0.09834923,0.8999565,-16.462502,21.16875,-26.1375,watch_1
15873882195293,7.3028946,-3.3511481,4.217948,-0.26389357,0.09834923,0.8999565,-16.462502,21.16875,-26.1375,watch_1
15873877232532,7.3028946,-3.3511481,4.217948,-0.13439025,0.07880156,1.0147991,-17.15625,21.150002,-23.737501,watch_1
15873894287897,7.3028946,-3.3511481,4.217948,-0.13439025,0.07880156,1.0147991,-17.15625,21.150002,-23.737501,watch_1
15873904287845,7.3028946,-3.3511481,4.217948,-0.13439025,0.07880156,1.0147991,-16.06875,20.493752,-25.44375,watch_1
15873896305553,7.3028946,-3.3511481,4.217948,-0.11728604,0.08735366,1.0954332,-16.06875,20.493752,-25.44375,watch_1
15873901268314,7.04447,-4.045067,3.854239,-0.11728604,0.08735366,1.0954332,-16.03125,20.456251,-23.400002,watch_1
15873914287793,7.04447,-4.045067,3.854239,-0.11728604,0.08735366,1.0954332,-16.03125,20.456251,-23.400002,watch_1
15873924287741,7.04447,-4.045067,3.854239,-0.11728604,0.08735366,1.0954332,-14.437501,22.931252,-24.187502,watch_1
15873915348522,6.853044,-4.2795634,4.404588,-0.21868959,0.10690133,1.0746639,-14.437501,22.931252,-24.187502,watch_1
15873920311282,6.853044,-4.2795634,4.404588,-0.21868959,0.10690133,1.0746639,-14.437501,22.931252,-24.187502,watch_1
15873934287689,6.853044,-4.2795634,4.404588,-0.21868959,0.10690133,1.0746639,-15.0375,21.431252,-23.8125,watch_1
15873944287637,6.853044,-4.2795634,4.404588,-0.21868959,0.10690133,1.0746639,-15.656251,21.206251,-23.41875,watch_1
15873939385293,7.0205417,-4.4949174,4.404588,-0.21868959,0.10690133,1.0746639,-15.656251,21.206251,-23.41875,watch_1
15873934422532,7.0205417,-4.4949174,4.404588,-0.48624837,0.07269291,1.0123557,-15.656251,21.206251,-23.41875,watch_1
15873954287584,7.0205417,-4.4949174,4.404588,-0.48624837,0.07269291,1.0123557,-14.7375,24.468752,-25.087502,watch_1
15873964287532,7.0205417,-4.4949174,4.404588,-0.48624837,0.07269291,1.0123557,-14.325001,22.518751,-23.550001,watch_1
15873953495553,6.9391856,-4.456632,4.572086,-0.5571087,-0.010384701,1.0147991,-14.325001,22.518751,-23.550001,watch_1
15873958458314,6.9391856,-4.456632,4.572086,-0.5571087,-0.010384701,1.0147991,-14.325001,22.518751,-23.550001,watch_1
15873974287480,6.9391856,-4.456632,4.572086,-0.5571087,-0.010384701,1.0147991,-13.762501,23.90625,-25.95,watch_1
15873984287428,6.9391856,-4.456632,4.572086,-0.5571087,-0.010384701,1.0147991,-16.143751,23.38125,-22.6875,watch_1
15873977532324,6.4558353,-4.8490553,4.734798,-0.5571087,-0.010384701,1.0147991,-16.143751,23.38125,-22.6875,watch_1
15873972569564,6.4558353,-4.8490553,4.734798,-0.53145236,-0.11423171,1.0856594,-16.143751,23.38125,-22.6875,watch_1
15873994287376,6.4558353,-4.8490553,4.734798,-0.53145236,-0.11423171,1.0856594,-12.093751,23.79375,-23.7,watch_1
15874004287324,6.4558353,-4.8490553,4.734798,-0.53145236,-0.11423171,1.0856594,-13.687501,24.150002,-23.34375,watch_1
15873996605293,6.5515485,-5.8731833,4.141378,-0.7391464,-0.18997894,1.0551162,-13.687501,24.150002,-23.34375,watch_1
15873991642532,6.5515485,-5.8731833,4.141378,-0.7391464,-0.18997894,1.0551162,-13.687501,24.150002,-23.34375,watch_1
15874014287272,6.5515485,-5.8731833,4.141378,-0.7391464,-0.18997894,1.0551162,-13.6125,24.862501,-23.400002,watch_1
15874024287220,6.5515485,-5.8731833,4.141378,-0.7391464,-0.18997894,1.0551162,-12.375001,25.1625,-23.4375,watch_1
15874015679303,6.6711893,-6.6149583,3.7728832,-0.7965677,-0.17409647,0.9622647,-12.375001,25.1625,-23.4375,watch_1
15874010716543,6.6711893,-6.6149583,3.7728832,-0.7965677,-0.17409647,0.9622647,-12.375001,25.1625,-23.4375,watch_1
15874034287168,6.6711893,-6.6149583,3.7728832,-0.7965677,-0.17409647,0.9622647,-14.56875,25.725,-23.60625,watch_1
15874044287116,6.6711893,-6.6149583,3.7728832,-0.7965677,-0.17409647,0.9622647,-12.543751,26.1,-21.50625,watch_1
15874029789564,6.7094746,-7.227521,3.9978085,-0.77457654,-0.1386663,0.84131354,-12.543751,26.1,-21.50625,watch_1
15874034752324,6.7094746,-7.227521,3.9978085,-0.77457654,-0.1386663,0.84131354,-12.543751,26.1,-21.50625,watch_1
15874054287064,6.862615,-7.739585,3.4857445,-0.77457654,-0.1386663,0.84131354,-11.306251,26.531252,-21.5625,watch_1
15874053826282,6.862615,-7.739585,3.4857445,-0.77457654,-0.1386663,0.84131354,-11.306251,26.531252,-21.5625,watch_1
15874048863522,6.862615,-7.739585,3.4857445,-0.7305943,-0.13500112,0.71425366,-11.306251,26.531252,-21.5625,watch_1
15874064287012,6.862615,-7.739585,3.4857445,-0.7305943,-0.13500112,0.71425366,-11.775001,26.00625,-19.518751,watch_1
15874074286959,6.862615,-7.739585,3.4857445,-0.7305943,-0.13500112,0.71425366,-13.462501,25.500002,-19.3875,watch_1
15874084286907,6.7764735,-7.7204423,3.8877387,-0.46547896,-0.13622284,0.649502,-12.1125,24.112501,-18.9375,watch_1
15874067936543,6.862615,-7.739585,3.4857445,-0.46547896,-0.13622284,0.649502,-12.1125,24.112501,-18.9375,watch_1
15874072899303,6.7764735,-7.7204423,3.8877387,-0.46547896,-0.13622284,0.649502,-12.1125,24.112501,-18.9375,watch_1
15874094286855,6.7764735,-7.7204423,3.8877387,-0.46547896,-0.13622284,0.649502,-8.981251,25.031252,-16.78125,watch_1
15874091973314,6.661618,-8.055437,4.241876,-0.3103193,-0.13744457,0.59818935,-8.981251,25.031252,-16.78125,watch_1
15874087010553,6.661618,-8.055437,4.241876,-0.3103193,-0.13744457,0.59818935,-8.34375,24.13125,-17.34375,watch_1
15874104286803,6.661618,-8.055437,4.241876,-0.3103193,-0.13744457,0.59818935,-8.34375,24.13125,-17.34375,watch_1
15874114286751,6.661618,-8.055437,4.241876,-0.3103193,-0.13744457,0.59818935,-9.09375,25.462502,-17.41875,watch_1
15874111016282,6.8865438,-8.476574,3.8255253,-0.3103193,-0.13744457,0.59818935,-9.09375,25.462502,-17.41875,watch_1
15874106053522,6.8865438,-8.476574,3.8255253,-0.4544834,-0.1472184,0.47968158,-7.4437504,23.60625,-13.70625,watch_1
15874124286699,6.8865438,-8.476574,3.8255253,-0.4544834,-0.1472184,0.47968158,-7.4437504,23.60625,-13.70625,watch_1
15874134286647,6.8865438,-8.476574,3.8255253,-0.4544834,-0.1472184,0.47968158,-8.587501,26.1,-17.868752,watch_1
15874130089303,6.9966135,-9.333204,3.3517463,-0.4544834,-0.1472184,0.47968158,-8.587501,26.1,-17.868752,watch_1
15874125126543,6.9966135,-9.333204,3.3517463,-0.5009091,-0.1472184,0.3404044,-8.587501,26.1,-17.868752,watch_1
15874144286595,6.9966135,-9.333204,3.3517463,-0.5009091,-0.1472184,0.3404044,-10.06875,26.343752,-18.206251,watch_1
15874154286543,6.9966135,-9.333204,3.3517463,-0.5009091,-0.1472184,0.3404044,-10.06875,26.343752,-18.206251,watch_1
15874149163314,7.01097,-9.361918,3.1890345,-0.5009091,-0.1472184,0.3404044,-10.06875,26.343752,-18.206251,watch_1
15874144200553,7.01097,-9.361918,3.1890345,-0.35674503,-0.126449,0.17669263,-10.06875,26.343752,-18.206251,watch_1
15874164286491,7.01097,-9.361918,3.1890345,-0.35674503,-0.126449,0.17669263,-10.40625,26.025002,-18.6375,watch_1
15874174286439,7.01097,-9.361918,3.1890345,-0.35674503,-0.126449,0.17669263,-9.65625,25.95,-17.681252,watch_1
15874163273522,6.8482585,-8.907282,3.5001013,-0.252898,-0.10079269,0.043524116,-9.65625,25.95,-17.681252,watch_1
15874168236282,6.8482585,-8.907282,3.5001013,-0.252898,-0.10079269,0.043524116,-9.65625,25.95,-17.681252,watch_1
15874184286387,6.8482585,-8.907282,3.5001013,-0.252898,-0.10079269,0.043524116,-9.806251,25.800001,-17.53125,watch_1
15874194286334,6.8482585,-8.907282,3.5001013,-0.252898,-0.10079269,0.043524116,-10.950001,27.6,-16.81875,watch_1
15874187310293,7.04447,-9.314062,3.0119655,-0.252898,-0.10079269,0.043524116,-10.950001,27.6,-16.81875,watch_1
15874182347532,7.04447,-9.314062,3.0119655,-0.20158538,-0.10567961,-0.07131846,-10.950001,27.6,-16.81875,watch_1
15874204286282,7.04447,-9.314062,3.0119655,-0.20158538,-0.10567961,-0.07131846,-8.90625,27.16875,-16.837502,watch_1
15874214286230,7.04447,-9.314062,3.0119655,-0.20158538,-0.10567961,-0.07131846,-11.08125,26.643751,-19.06875,watch_1
15874206383314,7.0731835,-9.165708,2.8205397,-0.013439025,-0.07391464,-0.22769985,-11.08125,26.643751,-19.06875,watch_1
15874201420553,7.0731835,-9.165708,2.8205397,-0.013439025,-0.07391464,-0.22769985,-11.08125,26.643751,-19.06875,watch_1
15874224286178,7.0731835,-9.165708,2.8205397,-0.013439025,-0.07391464,-0.22769985,-9.675,28.687502,-19.556252,watch_1
15874234286126,7.0731835,-9.165708,2.8205397,-0.013439025,-0.07391464,-0.22769985,-10.743751,26.643751,-16.706251,watch_1
15874225457324,6.920043,-9.1465645,2.748755,-0.013439025,-0.07391464,-0.22769985,-10.743751,26.643751,-16.706251,watch_1
15874220494564,6.920043,-9.1465645,2.748755,0.20158538,-0.007941242,-0.38652468,-10.743751,26.643751,-16.706251,watch_1
15874244286074,6.920043,-9.1465645,2.748755,0.20158538,-0.007941242,-0.38652468,-11.137501,25.875002,-16.6875,watch_1
15874254286022,6.920043,-9.1465645,2.748755,0.20158538,-0.007941242,-0.38652468,-10.03125,24.862501,-15.281251,watch_1
15874244530293,6.8051877,-8.835498,2.7966115,0.20158538,-0.007941242,-0.38652468,-10.03125,24.862501,-15.281251,watch_1
15874239567532,6.8051877,-8.835498,2.7966115,0.42760533,0.05070178,-0.54657125,-10.03125,24.862501,-15.281251,watch_1
15874264285970,6.8051877,-8.835498,2.7966115,0.42760533,0.05070178,-0.54657125,-11.0625,28.050001,-18.337502,watch_1
15874263604303,6.829116,-7.77787,3.1746774,0.5094612,0.08124501,-0.68218327,-11.793751,25.706251,-18.91875,watch_1
15874258641543,6.829116,-7.77787,3.1746774,0.5094612,0.08124501,-0.68218327,-11.793751,25.706251,-18.91875,watch_1
15874274285918,6.829116,-7.77787,3.1746774,0.5094612,0.08124501,-0.68218327,-11.793751,25.706251,-18.91875,watch_1
15874284285866,6.829116,-7.77787,3.1746774,0.5094612,0.08124501,-0.68218327,-12.0,25.10625,-18.300001,watch_1
15874277684564,6.829116,-7.77787,3.1746774,0.4838049,0.077579826,-0.7298307,-10.950001,26.531252,-18.900002,watch_1
15874294285814,6.829116,-7.77787,3.1746774,0.4838049,0.077579826,-0.7298307,-10.950001,26.531252,-18.900002,watch_1
15874282647324,7.058827,-7.500303,3.1555347,0.4838049,0.077579826,-0.7298307,-10.950001,26.531252,-18.900002,watch_1
15874304285762,7.058827,-7.500303,3.1555347,0.4838049,0.077579826,-0.7298307,-13.012501,25.725,-20.8125,watch_1
15874301720293,7.164111,-6.815955,2.8109684,0.5998692,0.06536253,-0.7225003,-13.012501,25.725,-20.8125,watch_1
15874296757532,7.164111,-6.815955,2.8109684,0.5998692,0.06536253,-0.7225003,-13.012501,25.725,-20.8125,watch_1
15874314285709,7.164111,-6.815955,2.8109684,0.5998692,0.06536253,-0.7225003,-13.087501,26.268751,-20.1375,watch_1
15874324285657,7.164111,-6.815955,2.8109684,0.5998692,0.06536253,-0.7225003,-11.90625,24.712502,-19.425001,watch_1
15874320794303,7.025327,-6.2081785,2.6865416,0.6658426,0.07391464,-0.74204797,-11.90625,24.712502,-19.425001,watch_1
15874315831543,7.025327,-6.2081785,2.6865416,0.6658426,0.07391464,-0.74204797,-11.90625,24.712502,-19.425001,watch_1
15874334285605,7.025327,-6.2081785,2.6865416,0.6658426,0.07391464,-0.74204797,-12.637501,25.06875,-20.7,watch_1
15874344285553,7.025327,-6.2081785,2.6865416,0.6658426,0.07391464,-0.74204797,-13.387501,25.44375,-22.556252,watch_1
15874339867324,6.652047,-5.916254,3.2703903,0.6658426,0.07391464,-0.74204797,-13.387501,25.44375,-22.556252,watch_1
15874334904564,6.652047,-5.916254,3.2703903,0.56443906,0.08124501,-0.8129083,-13.387501,25.44375,-22.556252,watch_1
15874354285501,6.652047,-5.916254,3.2703903,0.56443906,0.08124501,-0.8129083,-13.425,24.993752,-21.7875,watch_1
15874364285449,6.652047,-5.916254,3.2703903,0.56443906,0.08124501,-0.8129083,-14.343751,24.73125,-21.431252,watch_1
15874358941282,6.7094746,-6.0550375,3.5144582,0.26389357,0.048258316,-0.9607376,-14.343751,24.73125,-21.431252,watch_1
15874353978522,6.7094746,-6.0550375,3.5144582,0.26389357,0.048258316,-0.9607376,-14.343751,24.73125,-21.431252,watch_1
15874374285397,6.7094746,-6.0550375,3.5144582,0.26389357,0.048258316,-0.9607376,-14.606251,23.868752,-22.837502,watch_1
15874384285345,6.7094746,-6.0550375,3.5144582,0.26389357,0.048258316,-0.9607376,-15.675,23.41875,-21.618752,watch_1
15874378014303,6.876972,-6.2608204,3.964309,0.15149446,0.037262753,-1.0804671,-15.675,23.41875,-21.618752,watch_1
15874373051543,6.876972,-6.2608204,3.964309,0.15149446,0.037262753,-1.0804671,-15.675,23.41875,-21.618752,watch_1
15874394285293,6.876972,-6.2608204,3.964309,0.15149446,0.037262753,-1.0804671,-14.981251,24.525002,-22.368752,watch_1
15874404285241,6.876972,-6.2608204,3.964309,0.15149446,0.037262753,-1.0804671,-15.806251,23.85,-22.837502,watch_1
15874392124564,6.9966135,-5.9066825,3.9690945,0.19669846,0.054366965,-1.1586578,-15.806251,23.85,-22.837502,watch_1
15874397087324,6.9966135,-5.9066825,3.9690945,0.19669846,0.054366965,-1.1586578,-15.806251,23.85,-22.837502,watch_1
15874414285189,6.9966135,-5.9066825,3.9690945,0.19669846,0.054366965,-1.1586578,-15.525001,23.268751,-20.118752,watch_1
15874424285137,6.9966135,-5.9066825,3.9690945,0.19669846,0.054366965,-1.1586578,-15.3,21.50625,-22.10625,watch_1
15874416161282,7.2789664,-5.48076,3.423531,0.38728827,0.10690133,-1.1232276,-15.3,21.50625,-22.10625,watch_1
15874411198522,7.2789664,-5.48076,3.423531,0.38728827,0.10690133,-1.1232276,-15.3,21.50625,-22.10625,watch_1
15874434285084,7.2789664,-5.48076,3.423531,0.38728827,0.10690133,-1.1232276,-15.637501,22.59375,-22.40625,watch_1
15874444285032,7.2789664,-5.48076,3.423531,0.7367029,0.18264857,-1.0658063,-15.975,21.1875,-24.187502,watch_1
15874430271543,7.2789664,-5.48076,3.423531,0.7367029,0.18264857,-1.0658063,-15.975,21.1875,-24.187502,watch_1
15874435234303,7.192825,-4.557131,3.1986058,0.7367029,0.18264857,-1.0658063,-15.975,21.1875,-24.187502,watch_1
15874454284980,7.192825,-4.557131,3.1986058,0.7367029,0.18264857,-1.0658063,-17.8875,21.337502,-23.25,watch_1
15874449345553,7.015756,-4.025924,3.4474592,0.912632,0.22174391,-1.0596976,-17.8875,21.337502,-23.25,watch_1
15874454308314,7.015756,-4.025924,3.4474592,0.912632,0.22174391,-1.0596976,-17.8875,21.337502,-23.25,watch_1
15874464284928,7.015756,-4.025924,3.4474592,0.912632,0.22174391,-1.0596976,-18.112501,22.03125,-23.925001,watch_1
15874474284876,7.015756,-4.025924,3.4474592,0.912632,0.22174391,-1.0596976,-17.475,20.962502,-23.60625,watch_1
15874473351282,7.068398,-4.126423,3.6484563,0.912632,0.22174391,-1.0596976,-17.475,20.962502,-23.60625,watch_1
15874484284824,7.068398,-4.126423,3.6484563,0.7672462,0.21930045,-1.1012365,-18.712502,19.425001,-24.91875,watch_1
15874468388522,7.068398,-4.126423,3.6484563,0.7672462,0.21930045,-1.1012365,-18.712502,19.425001,-24.91875,watch_1
15874494284772,7.068398,-4.126423,3.6484563,0.7672462,0.21930045,-1.1012365,-17.25,20.4375,-23.681252,watch_1
15874487461543,7.068398,-4.126423,3.6484563,0.59498227,0.1924224,-1.1378883,-17.25,20.4375,-23.681252,watch_1
15874504284720,7.2550383,-3.8488553,4.1700916,0.59498227,0.1924224,-1.1378883,-18.300001,20.625,-25.125002,watch_1
15874492424303,7.2550383,-3.8488553,4.1700916,0.59498227,0.1924224,-1.1378883,-18.300001,20.625,-25.125002,watch_1
15874514284668,7.2550383,-3.8488553,4.1700916,0.59498227,0.1924224,-1.1378883,-19.6875,19.987501,-23.775002,watch_1
15874511498314,7.6666036,-3.097509,4.208377,0.39461866,0.171653,-1.1049017,-19.6875,19.987501,-23.775002,watch_1
15874506535553,7.6666036,-3.097509,4.208377,0.39461866,0.171653,-1.1049017,-19.6875,19.987501,-23.775002,watch_1
15874524284616,7.6666036,-3.097509,4.208377,0.39461866,0.171653,-1.1049017,-20.081251,18.150002,-26.1,watch_1
15874534284564,7.6666036,-3.097509,4.208377,0.39461866,0.171653,-1.1049017,-20.081251,18.150002,-26.1,watch_1
15874530571282,8.111669,-2.6907291,3.8207395,0.39461866,0.171653,-1.1049017,-20.081251,18.150002,-26.1,watch_1
15874525608522,8.111669,-2.6907291,3.8207395,0.26511532,0.17287473,-0.949742,-20.081251,18.150002,-26.1,watch_1
15874544284512,8.111669,-2.6907291,3.8207395,0.26511532,0.17287473,-0.949742,-17.38125,19.462502,-24.900002,watch_1
15874554284459,8.111669,-2.6907291,3.8207395,0.26511532,0.17287473,-0.949742,-20.75625,18.768751,-25.95,watch_1
15874549645293,8.537591,-2.1308086,2.7439694,0.26511532,0.17287473,-0.949742,-20.75625,18.768751,-25.95,watch_1
15874544682532,8.537591,-2.1308086,2.7439694,0.3347539,0.2083049,-0.7518218,-20.75625,16.7625,-24.6375,watch_1
15874564284407,8.537591,-2.1308086,2.7439694,0.3347539,0.2083049,-0.7518218,-18.5625,16.7625,-24.6375,watch_1
15874574284355,8.537591,-2.1308086,2.7439694,0.3347539,0.2083049,-0.7518218,-21.112501,17.98125,-24.6,watch_1
15874563755553,7.8628154,-2.7385855,3.571886,0.641408,0.25717407,-0.5807797,-21.112501,17.98125,-24.6,watch_1
15874568718314,7.8628154,-2.7385855,3.571886,0.641408,0.25717407,-0.5807797,-21.112501,17.98125,-24.6,watch_1
15874584284303,7.8628154,-2.7385855,3.571886,0.641408,0.25717407,-0.5807797,-20.0625,17.025002,-26.868752,watch_1
15874594284251,7.8628154,-2.7385855,3.571886,0.641408,0.25717407,-0.5807797,-20.23125,16.875,-27.018751,watch_1
15874587792324,7.5517483,-3.0496526,4.6342993,0.641408,0.25717407,-0.5807797,-20.23125,16.875,-27.018751,watch_1
15874582829564,7.5517483,-3.0496526,4.6342993,0.77946347,0.2498437,-0.53068876,-20.23125,16.875,-27.018751,watch_1
15874614284147,7.5517483,-3.0496526,4.6342993,0.77946347,0.2498437,-0.53068876,-19.35,18.2625,-27.487501,watch_1
15874604284199,7.5517483,-3.0496526,4.6342993,0.77946347,0.2498437,-0.53068876,-19.63125,16.63125,-25.181252,watch_1
15874606865293,7.743174,-2.3365912,4.8735814,0.59742576,0.23396121,-0.5319105,-19.35,18.2625,-27.487501,watch_1
15874601902532,7.743174,-2.3365912,4.8735814,0.59742576,0.23396121,-0.5319105,-19.35,18.2625,-27.487501,watch_1
15874624284095,7.743174,-2.3365912,4.8735814,0.59742576,0.23396121,-0.5319105,-21.675001,14.868751,-27.562502,watch_1
15874625939303,8.19781,-1.6618153,4.801797,0.59742576,0.23396121,-0.5319105,-19.2,16.5375,-25.25625,watch_1
15874634284043,8.19781,-1.6618153,4.801797,0.59742576,0.23396121,-0.5319105,-19.2,16.5375,-25.25625,watch_1
15874620976543,8.19781,-1.6618153,4.801797,0.32498005,0.23029602,-0.4659371,-19.2,16.5375,-25.25625,watch_1
15874644283991,8.19781,-1.6618153,4.801797,0.32498005,0.23029602,-0.4659371,-20.325,17.587502,-27.675001,watch_1
15874654283939,8.19781,-1.6618153,4.801797,0.32498005,0.23029602,-0.4659371,-20.15625,16.331251,-27.525002,watch_1
15874644982324,8.207381,-1.7336,4.624728,0.21991132,0.21441354,-0.28634286,-20.15625,16.331251,-27.525002,watch_1
15874640019564,8.207381,-1.7336,4.624728,0.21991132,0.21441354,-0.28634286,-20.15625,16.331251,-27.525002,watch_1
15874664283887,8.207381,-1.7336,4.624728,0.21991132,0.21441354,-0.28634286,-20.456251,14.868751,-26.85,watch_1
15874674283834,8.384451,-1.719243,4.1844487,0.21991132,0.21441354,-0.28634286,-19.95,15.50625,-27.581251,watch_1
15874664055293,8.384451,-1.719243,4.1844487,0.21991132,0.21441354,-0.28634286,-19.95,15.50625,-27.581251,watch_1
15874659092532,8.384451,-1.719243,4.1844487,0.35674503,0.171653,-0.08964441,-19.95,15.50625,-27.581251,watch_1
15874684283782,8.384451,-1.719243,4.1844487,0.35674503,0.171653,-0.08964441,-19.875,13.5375,-27.375002,watch_1
15874678166543,8.384451,-1.719243,4.1844487,0.5167916,0.19120067,0.10583232,-19.875,13.5375,-27.375002,watch_1
15874694283730,8.384451,-1.719243,4.1844487,0.5167916,0.19120067,0.10583232,-19.931252,14.38125,-27.6,watch_1
15874683129303,8.484949,-1.4943178,3.7154553,0.5167916,0.19120067,0.10583232,-19.931252,14.38125,-27.6,watch_1
15874704283678,8.484949,-1.4943178,3.7154553,0.5167916,0.19120067,0.10583232,-20.025002,15.262501,-29.587502,watch_1
15874702202324,8.092526,-1.6522441,4.78744,0.64629495,0.21441354,0.2658789,-20.025002,15.262501,-29.587502,watch_1
15874697239564,8.092526,-1.6522441,4.78744,0.64629495,0.21441354,0.2658789,-20.025002,15.262501,-29.587502,watch_1
15874714283626,8.092526,-1.6522441,4.78744,0.64629495,0.21441354,0.2658789,-19.275002,16.650002,-30.656252,watch_1
15874724283574,8.092526,-1.6522441,4.78744,0.64629495,0.21441354,0.2658789,-19.275002,16.650002,-30.656252,watch_1
15874721276282,7.9154572,-1.4033905,5.9503517,0.6194169,0.15821397,0.39171705,-20.681252,15.8625,-29.00625,watch_1
15874716313522,7.9154572,-1.4033905,5.9503517,0.6194169,0.15821397,0.39171705,-20.681252,15.8625,-29.00625,watch_1
15874734283522,7.9154572,-1.4033905,5.9503517,0.6194169,0.15821397,0.39171705,-20.681252,15.8625,-29.00625,watch_1
15874744283470,7.9154572,-1.4033905,5.9503517,0.6194169,0.15821397,0.39171705,-19.3125,14.775001,-29.325,watch_1
15874740349303,7.8149586,-2.1738794,5.5387864,0.6194169,0.15821397,0.39171705,-19.3125,14.775001,-29.325,watch_1
15874735386543,7.8149586,-2.1738794,5.5387864,0.284663,0.11300998,0.5395463,-19.5375,15.450001,-28.968752,watch_1
15874754283418,7.8149586,-2.1738794,5.5387864,0.284663,0.11300998,0.5395463,-19.5375,15.450001,-28.968752,watch_1
15874764283366,7.8149586,-2.1738794,5.5387864,0.284663,0.11300998,0.5395463,-19.63125,16.0125,-29.625002,watch_1
15874754460553,7.8867435,-2.2983062,5.0458646,0.0036651888,0.109344795,0.6543889,-19.81875,14.2875,-29.475,watch_1
15874774283314,7.776674,-2.6572297,5.179863,0.0036651888,0.109344795,0.6543889,-19.81875,14.2875,-29.475,watch_1
15874784283262,7.776674,-2.6572297,5.179863,-0.07208204,0.09957096,0.77167493,-19.81875,14.2875,-29.475,watch_1
15874778496282,7.776674,-2.6572297,5.179863,-0.07208204,0.09957096,0.77167493,-16.650002,15.50625,-27.056252,watch_1
15874794283209,7.776674,-2.6572297,5.179863,-0.07208204,0.09957096,0.77167493,-16.650002,15.50625,-27.056252,watch_1
15874773533522,7.776674,-2.6572297,5.179863,-0.07208204,0.09957096,0.77167493,-19.81875,14.2875,-29.475,watch_1
15874759423314,7.776674,-2.6572297,5.179863,-0.07208204,0.09957096,0.77167493,-16.650002,15.50625,-27.056252,watch_1
15874804283157,7.776674,-2.6572297,5.179863,-0.07208204,0.09957096,0.77167493,-16.96875,17.85,-26.156252,watch_1
15874797570293,7.283752,-3.1645079,5.768497,-0.15760311,0.083688475,0.88407403,-16.96875,17.85,-26.156252,watch_1
15874792607532,7.283752,-3.1645079,5.768497,-0.15760311,0.083688475,0.88407403,-16.96875,17.85,-26.156252,watch_1
15874814283105,7.283752,-3.1645079,5.768497,-0.15760311,0.083688475,0.88407403,-18.5625,11.212501,-23.5125,watch_1
15874824283053,7.283752,-3.1645079,5.768497,-0.15760311,0.083688475,0.88407403,-16.3875,12.075001,-23.925001,watch_1
15874811680553,7.2263246,-3.3894334,6.180063,-0.3848448,0.017715078,0.95004743,-16.3875,12.075001,-23.925001,watch_1
15874816643314,7.2263246,-3.3894334,6.180063,-0.3848448,0.017715078,0.95004743,-16.3875,12.075001,-23.925001,watch_1
15874834283001,7.2263246,-3.3894334,6.180063,-0.3848448,0.017715078,0.95004743,-16.125,11.681251,-23.41875,watch_1
15874844282949,7.2263246,-3.3894334,6.180063,-0.3848448,0.017715078,0.95004743,-13.63125,14.156251,-25.125002,watch_1
15874835686282,7.5613194,-3.4851463,5.725426,-0.7977894,-0.049480047,1.0086905,-13.63125,14.156251,-25.125002,watch_1
15874830723522,7.5613194,-3.4851463,5.725426,-0.7977894,-0.049480047,1.0086905,-13.63125,14.156251,-25.125002,watch_1
15874854282897,7.5613194,-3.4851463,5.725426,-0.7977894,-0.049480047,1.0086905,-15.900001,16.5375,-25.031252,watch_1
15874864282845,7.5613194,-3.4851463,5.725426,-0.7977894,-0.049480047,1.0086905,-14.887501,17.5125,-24.13125,watch_1
15874854760293,7.661818,-3.8440695,4.859225,-0.7977894,-0.049480047,1.0086905,-14.887501,17.5125,-24.13125,watch_1
15874849797532,7.661818,-3.8440695,4.859225,-1.1459824,-0.08735366,1.0441207,-14.887501,17.5125,-24.13125,watch_1
15874874282793,7.661818,-3.8440695,4.859225,-1.1459824,-0.08735366,1.0441207,-14.56875,17.681252,-24.2625,watch_1
15874873833314,7.288538,-3.4564323,4.7730827,-1.3781109,-0.12767074,1.0257946,-15.20625,20.5125,-27.525002,watch_1
15874884282741,7.288538,-3.4564323,4.7730827,-1.3781109,-0.12767074,1.0257946,-15.20625,20.5125,-27.525002,watch_1
15874868870553,7.288538,-3.4564323,4.7730827,-1.3781109,-0.12767074,1.0257946,-15.20625,20.5125,-27.525002,watch_1
15874894282689,7.288538,-3.4564323,4.7730827,-1.3781109,-0.12767074,1.0257946,-16.875,21.54375,-27.093752,watch_1
15874892907324,7.1976104,-3.7770705,3.8255253,-1.5259402,-0.20586143,1.0392337,-16.875,21.54375,-27.093752,watch_1
15874887944564,7.1976104,-3.7770705,3.8255253,-1.5259402,-0.20586143,1.0392337,-16.875,21.54375,-27.093752,watch_1
15874904282637,7.1976104,-3.7770705,3.8255253,-1.5259402,-0.20586143,1.0392337,-16.5375,20.4375,-25.48125,watch_1
15874914282584,7.1976104,-3.7770705,3.8255253,-1.5259402,-0.20586143,1.0392337,-15.825001,21.69375,-27.4125,watch_1
15874911980293,7.1210403,-4.1647077,3.5671003,-1.3707806,-0.24495678,1.0636683,-15.50625,22.81875,-25.312502,watch_1
15874924282532,7.1210403,-4.1647077,3.5671003,-1.3707806,-0.24495678,1.0636683,-15.50625,22.81875,-25.312502,watch_1
15874907017532,7.1210403,-4.1647077,3.5671003,-1.3707806,-0.24495678,1.0636683,-15.50625,22.81875,-25.312502,watch_1
15874934282480,7.1210403,-4.1647077,3.5671003,-1.3707806,-0.24495678,1.0636683,-15.843751,23.90625,-24.88125,watch_1
15874931054303,6.7669024,-4.8394837,3.586243,-1.3707806,-0.24495678,1.0636683,-15.843751,23.90625,-24.88125,watch_1
15874926091543,6.7669024,-4.8394837,3.586243,-1.0494657,-0.27427828,1.0881029,-15.843751,23.90625,-24.88125,watch_1
15874944282428,6.7669024,-4.8394837,3.586243,-1.0494657,-0.27427828,1.0881029,-13.856251,22.556252,-22.48125,watch_1
15874954282376,6.7669024,-4.8394837,3.586243,-1.0494657,-0.27427828,1.0881029,-13.762501,23.587502,-23.868752,watch_1
15874950127324,6.695118,-5.447261,3.7633119,-0.8833105,-0.2791652,1.0306816,-13.762501,23.587502,-23.868752,watch_1
15874945164564,6.695118,-5.447261,3.7633119,-0.8833105,-0.2791652,1.0306816,-13.762501,23.587502,-23.868752,watch_1
15874964282324,6.695118,-5.447261,3.7633119,-0.8833105,-0.2791652,1.0306816,-12.50625,23.85,-22.59375,watch_1
15874974282272,6.695118,-5.447261,3.7633119,-0.8833105,-0.2791652,1.0306816,-12.7875,24.112501,-23.1,watch_1
15874984282220,6.74776,-5.7966127,3.882953,-0.92240584,-0.26572618,0.8950696,-12.468751,24.13125,-22.331251,watch_1
15874969201282,6.74776,-5.7966127,3.882953,-0.92240584,-0.26572618,0.8950696,-12.468751,24.13125,-22.331251,watch_1
15874964238522,6.74776,-5.7966127,3.882953,-0.92240584,-0.26572618,0.8950696,-12.468751,24.13125,-22.331251,watch_1
15874994282168,6.74776,-5.7966127,3.882953,-0.98715746,-0.24862197,0.7619011,-13.35,25.725,-22.59375,watch_1
15874983311543,6.74776,-5.7966127,3.882953,-0.98715746,-0.24862197,0.7619011,-13.35,25.725,-22.59375,watch_1
15874988274303,6.74776,-6.6532435,3.8255253,-0.98715746,-0.24862197,0.7619011,-13.35,25.725,-22.59375,watch_1
15875004282116,6.74776,-6.6532435,3.8255253,-0.98715746,-0.24862197,0.7619011,-12.13125,26.04375,-23.34375,watch_1
15875014282064,6.74776,-6.6532435,3.8255253,-0.98715746,-0.24862197,0.7619011,-12.356251,25.125002,-21.69375,watch_1
15875007347324,6.910472,-6.7537417,3.394817,-0.98715746,-0.24862197,0.7619011,-12.356251,25.125002,-21.69375,watch_1
15875002384564,6.910472,-6.7537417,3.394817,-0.92118406,-0.24617851,0.6262891,-12.356251,25.125002,-21.69375,watch_1
15875024282012,6.910472,-6.7537417,3.394817,-0.92118406,-0.24617851,0.6262891,-13.81875,26.1375,-18.46875,watch_1
15875034281959,6.910472,-6.7537417,3.394817,-0.92118406,-0.24617851,0.6262891,-12.20625,27.675001,-20.75625,watch_1
15875021427532,7.183254,-6.954739,2.7918258,-0.77091134,-0.22174391,0.5517636,-12.20625,27.675001,-20.75625,watch_1
15875026390293,7.183254,-6.954739,2.7918258,-0.77091134,-0.22174391,0.5517636,-12.20625,27.675001,-20.75625,watch_1
15875044281907,7.183254,-6.954739,2.7918258,-0.77091134,-0.22174391,0.5517636,-12.900001,27.056252,-22.368752,watch_1
15875054281855,7.0731835,-7.1078796,3.1890345,-0.5534435,-0.16920954,0.5065596,-13.35,26.5125,-19.462502,watch_1
15875040501543,7.0731835,-7.1078796,3.1890345,-0.5534435,-0.16920954,0.5065596,-13.35,26.5125,-19.462502,watch_1
15875045464303,7.0731835,-7.1078796,3.1890345,-0.5534435,-0.16920954,0.5065596,-13.35,26.5125,-19.462502,watch_1
15875064281803,7.0731835,-7.1078796,3.1890345,-0.5534435,-0.16920954,0.5065596,-12.4875,26.493752,-20.53125,watch_1
15875074281751,7.0731835,-7.1078796,3.1890345,-0.48869184,-0.1545488,0.45769045,-11.83125,25.44375,-19.9125,watch_1
15875059574564,7.0731835,-7.1078796,3.1890345,-0.48869184,-0.1545488,0.45769045,-11.83125,25.44375,-19.9125,watch_1
15875064537324,6.9726853,-6.88774,3.5958142,-0.48869184,-0.1545488,0.45769045,-11.83125,25.44375,-19.9125,watch_1
15875084281699,6.9726853,-6.88774,3.5958142,-0.48869184,-0.1545488,0.45769045,-11.2875,26.531252,-20.98125,watch_1
15875083611282,7.0636125,-7.146165,3.3278182,-0.56077385,-0.171653,0.42226028,-11.2875,26.531252,-20.98125,watch_1
15875078648522,7.0636125,-7.146165,3.3278182,-0.56077385,-0.171653,0.42226028,-11.2875,26.531252,-20.98125,watch_1
15875094281647,7.0636125,-7.146165,3.3278182,-0.56077385,-0.171653,0.42226028,-11.043751,27.243752,-19.85625,watch_1
15875104281595,7.0636125,-7.146165,3.3278182,-0.56077385,-0.171653,0.42226028,-12.056251,27.525002,-19.556252,watch_1
15875097721543,7.0636125,-7.146165,3.3278182,-0.5742129,-0.16798781,0.3611738,-12.056251,27.525002,-19.556252,watch_1
15875114281543,7.0636125,-7.146165,3.3278182,-0.5742129,-0.16798781,0.3611738,-12.187501,27.656252,-19.44375,watch_1
15875102684303,7.0205417,-7.500303,2.777469,-0.5742129,-0.16798781,0.3611738,-12.187501,27.656252,-19.44375,watch_1
15875124281491,7.0205417,-7.500303,2.777469,-0.5742129,-0.16798781,0.3611738,-12.187501,27.31875,-17.38125,watch_1
15875121758314,7.0301127,-7.7826557,2.4999015,-0.43249226,-0.1301142,0.2866483,-12.806251,25.837502,-17.737501,watch_1
15875116795553,7.0301127,-7.7826557,2.4999015,-0.43249226,-0.1301142,0.2866483,-12.806251,25.837502,-17.737501,watch_1
15875134281439,7.0301127,-7.7826557,2.4999015,-0.43249226,-0.1301142,0.2866483,-12.806251,25.837502,-17.737501,watch_1
15875144281387,7.0301127,-7.7826557,2.4999015,-0.43249226,-0.1301142,0.2866483,-10.556251,28.687502,-18.487501,watch_1
15875135868522,6.8339014,-7.2993054,2.925824,-0.27122396,-0.08124501,0.21823144,-10.556251,28.687502,-18.487501,watch_1
15875140831282,6.8339014,-7.2993054,2.925824,-0.27122396,-0.08124501,0.21823144,-10.556251,28.687502,-18.487501,watch_1
15875154281334,6.8339014,-7.2993054,2.925824,-0.27122396,-0.08124501,0.21823144,-9.75,29.04375,-17.118752,watch_1
15875164281282,6.8339014,-7.2993054,2.925824,-0.27122396,-0.08124501,0.21823144,-11.606251,28.5375,-18.300001,watch_1
15875154942532,6.680761,-7.605587,2.9114668,-0.39950556,-0.06536253,0.18157956,-11.606251,28.5375,-18.300001,watch_1
15875159905293,6.680761,-7.605587,2.9114668,-0.39950556,-0.06536253,0.18157956,-11.606251,28.5375,-18.300001,watch_1
15875174281230,6.680761,-7.605587,2.9114668,-0.39950556,-0.06536253,0.18157956,-9.6,28.9125,-16.650002,watch_1
15875184281178,6.680761,-7.605587,2.9114668,-0.39950556,-0.06536253,0.18157956,-9.84375,29.625002,-18.056252,watch_1
15875174015553,6.8721867,-8.184649,2.5956144,-0.4838049,-0.060475614,0.100945406,-9.84375,29.625002,-18.056252,watch_1
15875178978314,6.8721867,-8.184649,2.5956144,-0.4838049,-0.060475614,0.100945406,-9.84375,29.625002,-18.056252,watch_1
15875194281126,6.8721867,-8.184649,2.5956144,-0.4838049,-0.060475614,0.100945406,-13.031251,29.212502,-18.393751,watch_1
15875204281074,6.8721867,-8.184649,2.5956144,-0.4838049,-0.060475614,0.100945406,-11.793751,27.900002,-16.087502,watch_1
15875198021282,7.01097,-7.926225,3.0693932,-0.4838049,-0.060475614,0.100945406,-11.793751,27.900002,-16.087502,watch_1
15875193058522,7.01097,-7.926225,3.0693932,-0.40805766,-0.03604102,0.0044287695,-11.793751,27.900002,-16.087502,watch_1
15875214281022,7.01097,-7.926225,3.0693932,-0.40805766,-0.03604102,0.0044287695,-13.44375,29.41875,-17.737501,watch_1
15875224280970,7.01097,-7.926225,3.0693932,-0.40805766,-0.03604102,0.0044287695,-10.368751,30.4125,-18.337502,watch_1
15875212132532,6.8339014,-7.88794,3.1172497,-0.42760533,-0.027488915,-0.061544627,-10.368751,30.4125,-18.337502,watch_1
15875217095293,6.8339014,-7.88794,3.1172497,-0.42760533,-0.027488915,-0.061544627,-10.368751,30.4125,-18.337502,watch_1
15875234280918,6.8339014,-7.88794,3.1172497,-0.42760533,-0.027488915,-0.061544627,-10.5375,28.650002,-17.175001,watch_1
15875244280866,6.8339014,-7.88794,3.1172497,-0.42760533,-0.027488915,-0.061544627,-10.931251,29.025002,-16.81875,watch_1
15875236168314,7.04447,-8.208578,2.4616163,-0.35674503,-0.027488915,-0.12996148,-10.931251,29.025002,-16.81875,watch_1
15875231205553,7.04447,-8.208578,2.4616163,-0.35674503,-0.027488915,-0.12996148,-10.931251,29.025002,-16.81875,watch_1
15875254280814,7.04447,-8.208578,2.4616163,-0.35674503,-0.027488915,-0.12996148,-10.59375,29.493752,-17.118752,watch_1
15875264280762,7.04447,-8.208578,2.4616163,-0.35674503,-0.027488915,-0.12996148,-11.08125,29.156252,-16.987501,watch_1
15875255242324,7.068398,-8.414361,2.0500507,-0.35674503,-0.027488915,-0.12996148,-11.08125,29.156252,-16.987501,watch_1
15875274280709,7.068398,-8.414361,2.0500507,-0.12095123,0.009162972,-0.20570871,-11.34375,29.400002,-17.493752,watch_1
15875250279564,7.068398,-8.414361,2.0500507,-0.12095123,0.009162972,-0.20570871,-11.34375,29.400002,-17.493752,watch_1
15875274315293,6.9583282,-8.500503,1.9830518,-0.12095123,0.009162972,-0.20570871,-11.34375,29.400002,-17.493752,watch_1
15875269352532,6.9583282,-8.500503,1.9830518,0.20402883,0.077579826,-0.29733843,-11.34375,29.400002,-17.493752,watch_1
15875284280657,6.9583282,-8.500503,1.9830518,0.20402883,0.077579826,-0.29733843,-11.175,27.806252,-14.55,watch_1
15875294280605,6.9583282,-8.500503,1.9830518,0.20402883,0.077579826,-0.29733843,-11.175,27.806252,-14.55,watch_1
15875288426543,6.9583282,-8.500503,1.9830518,0.41905323,0.14355323,-0.42195484,-12.750001,27.69375,-18.35625,watch_1
15875304280553,6.9583282,-8.500503,1.9830518,0.41905323,0.14355323,-0.42195484,-12.750001,27.69375,-18.35625,watch_1
15875293389303,6.7334027,-6.8781686,3.2847474,0.41905323,0.14355323,-0.42195484,-12.750001,27.69375,-18.35625,watch_1
15875314280501,6.7334027,-6.8781686,3.2847474,0.41905323,0.14355323,-0.42195484,-12.50625,28.237501,-16.2,watch_1
15875312462324,6.800402,-7.2466636,3.0406795,0.41905323,0.14355323,-0.42195484,-12.50625,28.237501,-16.2,watch_1
15875307499564,6.800402,-7.2466636,3.0406795,0.13683371,0.13377939,-0.502589,-11.325001,29.718752,-18.243752,watch_1
15875324280449,6.800402,-7.2466636,3.0406795,0.13683371,0.13377939,-0.502589,-11.325001,29.718752,-18.243752,watch_1
15875334280397,6.800402,-7.2466636,3.0406795,0.13683371,0.13377939,-0.502589,-12.675,29.493752,-16.331251,watch_1
15875331536282,6.8721867,-7.576873,2.3994029,0.13683371,0.13377939,-0.502589,-12.675,29.493752,-16.331251,watch_1
15875326573522,6.8721867,-7.576873,2.3994029,-0.037873615,0.12889247,-0.606436,-12.675,29.493752,-16.331251,watch_1
15875344280345,6.8721867,-7.576873,2.3994029,-0.037873615,0.12889247,-0.606436,-13.106251,28.48125,-17.587502,watch_1
15875354280293,6.8721867,-7.576873,2.3994029,-0.037873615,0.12889247,-0.606436,-13.125001,26.906252,-17.306252,watch_1
15875350609303,7.0061846,-7.0839515,1.7389839,-0.037873615,0.12889247,-0.606436,-13.125001,26.906252,-17.306252,watch_1
15875345646543,7.0061846,-7.0839515,1.7389839,0.0537561,0.14355323,-0.6980657,-14.625001,26.7,-16.725,watch_1
15875364280241,7.0061846,-7.0839515,1.7389839,0.0537561,0.14355323,-0.6980657,-14.625001,26.7,-16.725,watch_1
15875374280189,7.0061846,-7.0839515,1.7389839,0.0537561,0.14355323,-0.6980657,-14.925,25.556252,-17.5125,watch_1
15875369683314,7.192825,-7.0504518,1.5379868,0.0537561,0.14355323,-0.6980657,-14.925,25.556252,-17.5125,watch_1
15875364720553,7.192825,-7.0504518,1.5379868,0.36896232,0.1960876,-0.7493784,-14.925,25.556252,-17.5125,watch_1
15875384280137,7.192825,-7.0504518,1.5379868,0.36896232,0.1960876,-0.7493784,-12.731251,27.975,-18.675001,watch_1
15875394280084,7.192825,-7.0504518,1.5379868,0.36896232,0.1960876,-0.7493784,-14.75625,25.725,-18.09375,watch_1
15875388726282,7.015756,-6.40439,2.437688,0.36896232,0.1960876,-0.7493784,-14.75625,25.725,-18.09375,watch_1
15875383763522,7.015756,-6.40439,2.437688,0.76235926,0.25106543,-0.8202387,-13.368751,26.19375,-18.4125,watch_1
15875404280032,7.015756,-6.40439,2.437688,0.76235926,0.25106543,-0.8202387,-13.368751,26.19375,-18.4125,watch_1
15875414279980,7.015756,-6.40439,2.437688,0.76235926,0.25106543,-0.8202387,-14.7375,26.175001,-19.44375,watch_1
15875407799303,7.125826,-6.122037,3.4474592,0.76235926,0.25106543,-0.8202387,-14.7375,26.175001,-19.44375,watch_1
15875402836543,7.125826,-6.122037,3.4474592,1.0067052,0.22296564,-0.8483385,-14.7375,26.175001,-19.44375,watch_1
15875424279928,7.125826,-6.122037,3.4474592,1.0067052,0.22296564,-0.8483385,-14.08125,25.275002,-18.993752,watch_1
15875434279876,7.125826,-6.122037,3.4474592,1.0067052,0.22296564,-0.8483385,-15.58125,25.5375,-20.94375,watch_1
15875426873314,7.1449685,-6.2847486,3.9451663,1.0067052,0.22296564,-0.8483385,-15.58125,25.5375,-20.94375,watch_1
15875421910553,7.1449685,-6.2847486,3.9451663,1.1129956,0.18142684,-0.8629992,-15.58125,25.5375,-20.94375,watch_1
15875444279824,7.1449685,-6.2847486,3.9451663,1.1129956,0.18142684,-0.8629992,-15.075001,26.19375,-21.525002,watch_1
15875454279772,7.1449685,-6.2847486,3.9451663,1.1349868,0.17409647,-0.9118684,-16.556252,26.118752,-21.112501,watch_1
15875440983522,7.1449685,-6.2847486,3.9451663,1.1349868,0.17409647,-0.9118684,-16.556252,26.118752,-21.112501,watch_1
15875445946282,7.3363943,-6.1938214,3.7250266,1.1349868,0.17409647,-0.9118684,-14.587501,23.85,-21.243752,watch_1
15875464279720,7.3363943,-6.1938214,3.7250266,1.1349868,0.17409647,-0.9118684,-14.587501,23.85,-21.243752,watch_1
15875474279668,7.3363943,-6.1938214,3.7250266,1.1349868,0.17409647,-0.9118684,-16.237501,23.775002,-21.5625,watch_1
15875465020293,7.379465,-5.1936216,4.0552363,1.0458004,0.22052218,-0.9827287,-16.237501,23.775002,-21.5625,watch_1
15875460057532,7.379465,-5.1936216,4.0552363,1.0458004,0.22052218,-0.9827287,-16.237501,23.775002,-21.5625,watch_1
15875484279616,7.379465,-5.1936216,4.0552363,1.0458004,0.22052218,-0.9827287,-16.66875,24.018751,-22.06875,watch_1
15875484093314,7.4512496,-4.241278,4.127021,0.6695078,0.24862197,-1.0169371,-16.66875,24.018751,-22.06875,watch_1
15875479130553,7.4512496,-4.241278,4.127021,0.6695078,0.24862197,-1.0169371,-16.66875,24.018751,-22.06875,watch_1
15875494279564,7.4512496,-4.241278,4.127021,0.6695078,0.24862197,-1.0169371,-17.71875,22.612501,-22.35,watch_1
15875504279512,7.4512496,-4.241278,4.127021,0.6695078,0.24862197,-1.0169371,-15.056251,23.493752,-20.8125,watch_1
15875498204564,7.4512496,-4.241278,4.127021,0.32009315,0.26450446,-0.9741766,-15.056251,23.493752,-20.8125,watch_1
15875514279459,7.4512496,-4.241278,4.127021,0.32009315,0.26450446,-0.9741766,-15.375001,23.15625,-20.25,watch_1
15875503167324,7.6139617,-4.5762734,3.5623147,0.32009315,0.26450446,-0.9741766,-15.375001,23.15625,-20.25,watch_1
15875524279407,7.6139617,-4.5762734,3.5623147,0.32009315,0.26450446,-0.9741766,-16.81875,22.575,-21.956251,watch_1
15875522240293,7.2550383,-4.705486,3.8590248,0.3848448,0.25717407,-0.96806794,-16.81875,22.575,-21.956251,watch_1
15875517277532,7.2550383,-4.705486,3.8590248,0.3848448,0.25717407,-0.96806794,-16.81875,22.575,-21.956251,watch_1
15875534279355,7.2550383,-4.705486,3.8590248,0.3848448,0.25717407,-0.96806794,-17.56875,21.35625,-22.5,watch_1
15875544279303,7.2550383,-4.705486,3.8590248,0.3848448,0.25717407,-0.96806794,-17.85,21.618752,-22.837502,watch_1
15875541314303,7.4656067,-4.2317066,4.127021,0.57665634,0.18997894,-0.9570724,-17.85,21.618752,-22.837502,watch_1
15875536351543,7.4656067,-4.2317066,4.127021,0.57665634,0.18997894,-0.9570724,-17.85,21.618752,-22.837502,watch_1
15875554279251,7.4656067,-4.2317066,4.127021,0.57665634,0.18997894,-0.9570724,-16.987501,21.31875,-23.587502,watch_1
15875564279199,7.4656067,-4.2317066,4.127021,0.57665634,0.18997894,-0.9570724,-18.018751,20.025002,-22.425001,watch_1
15875560357324,7.618747,-3.8440695,4.2705903,0.57665634,0.18997894,-0.9570724,-18.018751,20.025002,-22.425001,watch_1
15875555394564,7.618747,-3.8440695,4.2705903,0.69394237,0.14355323,-0.90209454,-18.018751,20.025002,-22.425001,watch_1
15875574279147,7.618747,-3.8440695,4.2705903,0.69394237,0.14355323,-0.90209454,-18.69375,20.98125,-24.91875,watch_1
15875584279095,7.618747,-3.8440695,4.2705903,0.69394237,0.14355323,-0.90209454,-18.056252,20.081251,-24.750002,watch_1
15875579430293,7.4943204,-3.6670008,4.4093738,0.69394237,0.14355323,-0.90209454,-18.056252,20.081251,-24.750002,watch_1
15875574467532,7.4943204,-3.6670008,4.4093738,0.5742129,0.1423315,-0.82756907,-18.056252,20.081251,-24.750002,watch_1
15875594279043,7.4943204,-3.6670008,4.4093738,0.5742129,0.1423315,-0.82756907,-18.768751,19.143751,-25.331251,watch_1
15875604278991,7.4943204,-3.6670008,4.4093738,0.5742129,0.1423315,-0.82756907,-20.962502,19.25625,-24.281252,watch_1
15875598503314,7.704889,-3.0640094,3.9020956,0.2687805,0.1631009,-0.7518218,-20.962502,19.25625,-24.281252,watch_1
15875593540553,7.704889,-3.0640094,3.9020956,0.2687805,0.1631009,-0.7518218,-20.962502,19.25625,-24.281252,watch_1
15875614278939,7.704889,-3.0640094,3.9020956,0.2687805,0.1631009,-0.7518218,-19.837502,18.712502,-24.675001,watch_1
15875624278887,7.704889,-3.0640094,3.9020956,0.2687805,0.1631009,-0.7518218,-19.837502,18.712502,-24.675001,watch_1
15875617577324,7.9537425,-2.6333013,3.720241,0.06108648,0.17776164,-0.6675225,-19.837502,18.712502,-24.675001,watch_1
15875612614564,7.9537425,-2.6333013,3.720241,0.06108648,0.17776164,-0.6675225,-19.837502,18.712502,-24.675001,watch_1
15875634278834,7.9537425,-2.6333013,3.720241,0.06108648,0.17776164,-0.6675225,-20.60625,19.725,-23.7,watch_1
15875644278782,7.9537425,-2.6333013,3.720241,0.06108648,0.17776164,-0.6675225,-17.737501,20.1,-24.0,watch_1
15875636650293,8.394022,-2.9874392,3.6867416,0.06108648,0.17776164,-0.6675225,-17.737501,20.1,-24.0,watch_1
15875654278730,8.394022,-2.9874392,3.6867416,0.14294235,0.126449,-0.5575668,-19.425001,19.9125,-25.181252,watch_1
15875631687532,8.394022,-2.9874392,3.6867416,0.14294235,0.126449,-0.5575668,-19.425001,19.9125,-25.181252,watch_1
15875664278678,8.394022,-2.9874392,3.6867416,0.14294235,0.126449,-0.5575668,-20.2875,18.806252,-24.88125,watch_1
15875655724303,8.283952,-2.9012976,3.6197424,0.14294235,0.126449,-0.5575668,-20.2875,18.806252,-24.88125,watch_1
15875650761543,8.283952,-2.9012976,3.6197424,0.41294459,0.109344795,-0.41340274,-20.2875,18.806252,-24.88125,watch_1
15875674278626,8.283952,-2.9012976,3.6197424,0.41294459,0.109344795,-0.41340274,-18.46875,19.03125,-24.993752,watch_1
15875684278574,8.283952,-2.9012976,3.6197424,0.41294459,0.109344795,-0.41340274,-20.400002,17.8125,-25.518751,watch_1
15875669834564,8.202596,-2.4035904,4.093521,0.4874701,0.12156209,-0.26435173,-20.868752,17.75625,-25.85625,watch_1
15875694278522,8.202596,-2.4035904,4.093521,0.4874701,0.12156209,-0.26435173,-20.868752,17.75625,-25.85625,watch_1
15875674797324,8.202596,-2.4035904,4.093521,0.4874701,0.12156209,-0.26435173,-20.868752,17.75625,-25.85625,watch_1
15875704278470,8.202596,-2.4035904,4.093521,0.2687805,0.116675176,-0.11285727,-20.025002,18.393751,-24.525002,watch_1
15875688908522,8.202596,-2.4035904,4.093521,0.2687805,0.116675176,-0.11285727,-20.025002,18.393751,-24.525002,watch_1
15875693871282,8.16431,-1.8771694,4.4811587,0.2687805,0.116675176,-0.11285727,-20.025002,18.393751,-24.525002,watch_1
15875714278418,8.16431,-1.8771694,4.4811587,0.2687805,0.116675176,-0.11285727,-21.0375,17.4375,-25.425001,watch_1
15875707981543,8.432307,-2.3988047,4.371089,0.056199558,0.06902772,0.048411034,-21.0375,17.4375,-25.425001,watch_1
15875712944303,8.432307,-2.3988047,4.371089,0.056199558,0.06902772,0.048411034,-21.0375,17.4375,-25.425001,watch_1
15875724278366,8.432307,-2.3988047,4.371089,0.056199558,0.06902772,0.048411034,-19.5375,17.643751,-25.556252,watch_1
15875734278314,8.432307,-2.3988047,4.371089,0.056199558,0.06902772,0.048411034,-18.4125,18.206251,-25.48125,watch_1
15875732018314,8.408379,-2.92044,3.8207395,0.056199558,0.06902772,0.048411034,-18.4125,18.206251,-25.48125,watch_1
15875727055553,8.408379,-2.92044,3.8207395,0.07208204,0.06536253,0.1999055,-19.556252,17.34375,-24.806252,watch_1
15875744278262,8.408379,-2.92044,3.8207395,0.07208204,0.06536253,0.1999055,-19.556252,17.34375,-24.806252,watch_1
15875754278209,8.408379,-2.92044,3.8207395,0.07208204,0.06536253,0.1999055,-19.050001,19.425001,-26.7,watch_1
15875746098522,8.135597,-2.312663,4.3854456,0.20402883,0.06169734,0.3318523,-19.35,17.962502,-26.00625,watch_1
15875751061282,8.135597,-2.312663,4.3854456,0.20402883,0.06169734,0.3318523,-19.35,17.962502,-26.00625,watch_1
15875764278157,8.135597,-2.312663,4.3854456,0.20402883,0.06169734,0.3318523,-19.35,17.962502,-26.00625,watch_1
15875774278105,8.135597,-2.312663,4.3854456,0.20402883,0.06169734,0.3318523,-19.125,18.35625,-23.831251,watch_1
15875770134303,7.8867435,-2.4323041,4.610371,0.20402883,0.06169734,0.3318523,-19.125,18.35625,-23.831251,watch_1
15875765171543,7.8867435,-2.4323041,4.610371,0.239459,0.010384701,0.4735729,-19.125,18.35625,-23.831251,watch_1
15875784278053,7.8867435,-2.4323041,4.610371,0.239459,0.010384701,0.4735729,-19.050001,19.40625,-25.968752,watch_1
15875794278001,7.8867435,-2.4323041,4.610371,0.239459,0.010384701,0.4735729,-18.337502,18.9375,-25.837502,watch_1
15875784245553,7.8867435,-2.4323041,4.610371,0.17226386,-0.032375835,0.6030763,-18.337502,18.9375,-25.837502,watch_1
15875789208314,7.800602,-2.9682965,4.581657,0.17226386,-0.032375835,0.6030763,-18.337502,18.9375,-25.837502,watch_1
15875804277949,7.800602,-2.9682965,4.581657,0.17226386,-0.032375835,0.6030763,-18.50625,19.087502,-27.768751,watch_1
15875814277897,7.800602,-2.9682965,4.581657,0.17226386,-0.032375835,0.6030763,-18.431252,18.225,-26.79375,watch_1
15875808281282,7.743174,-3.1118658,4.328018,0.17226386,-0.032375835,0.6030763,-18.431252,18.225,-26.79375,watch_1
15875803318522,7.743174,-3.1118658,4.328018,-0.015882485,-0.005497783,0.6959277,-18.431252,18.225,-26.79375,watch_1
15875824277845,7.743174,-3.1118658,4.328018,-0.015882485,-0.005497783,0.6959277,-19.40625,18.806252,-26.23125,watch_1
15875834277793,7.743174,-3.1118658,4.328018,-0.015882485,-0.005497783,0.6959277,-16.95,20.8125,-26.00625,watch_1
15875827355293,7.786245,-3.3846476,3.8398821,-0.13805544,0.023823727,0.7948878,-16.95,20.8125,-26.00625,watch_1
15875822392532,7.786245,-3.3846476,3.8398821,-0.13805544,0.023823727,0.7948878,-16.95,20.8125,-26.00625,watch_1
15875844277741,7.786245,-3.3846476,3.8398821,-0.13805544,0.023823727,0.7948878,-17.53125,18.1875,-26.250002,watch_1
15875854277689,7.786245,-3.3846476,3.8398821,-0.13805544,0.023823727,0.7948878,-15.918751,20.34375,-24.243752,watch_1
15875846428314,7.52782,-3.418147,3.9930227,-0.13805544,0.023823727,0.7948878,-15.918751,20.34375,-24.243752,watch_1
15875841465553,7.52782,-3.418147,3.9930227,-0.13439025,0.045814857,0.87552196,-16.63125,20.831251,-24.956251,watch_1
15875864277637,7.52782,-3.418147,3.9930227,-0.13439025,0.045814857,0.87552196,-16.63125,20.831251,-24.956251,watch_1
15875865502324,6.8817577,-3.4277184,4.7539406,-0.13439025,0.045814857,0.87552196,-16.125,19.743752,-24.056252,watch_1
15875874277584,6.8817577,-3.4277184,4.7539406,-0.13439025,0.045814857,0.87552196,-16.125,19.743752,-24.056252,watch_1
15875860539564,6.8817577,-3.4277184,4.7539406,-0.15149446,0.029932374,0.9427171,-16.125,19.743752,-24.056252,watch_1
15875884277532,6.8817577,-3.4277184,4.7539406,-0.15149446,0.029932374,0.9427171,-18.7875,21.862501,-26.906252,watch_1
15875894277480,6.910472,-4.193422,5.2085767,-0.15149446,0.029932374,0.9427171,-15.562501,20.962502,-24.843752,watch_1
15875884575293,6.910472,-4.193422,5.2085767,-0.15149446,0.029932374,0.9427171,-15.562501,20.962502,-24.843752,watch_1
15875879612532,6.910472,-4.193422,5.2085767,-0.28832817,-0.032375835,1.00136,-15.562501,20.962502,-24.843752,watch_1
15875904277428,6.910472,-4.193422,5.2085767,-0.28832817,-0.032375835,1.00136,-15.4125,20.831251,-24.375002,watch_1
15875898686543,7.025327,-5.0979085,5.065007,-0.5045743,-0.058032155,1.024573,-15.4125,20.831251,-24.375002,watch_1
15875903649303,7.025327,-5.0979085,5.065007,-0.5045743,-0.058032155,1.024573,-15.4125,20.831251,-24.375002,watch_1
15875914277376,7.025327,-5.0979085,5.065007,-0.5045743,-0.058032155,1.024573,-15.918751,20.6625,-25.875002,watch_1
15875924277324,7.025327,-5.0979085,5.065007,-0.5045743,-0.058032155,1.024573,-15.900001,22.21875,-26.175001,watch_1
15875917759564,7.025327,-5.0979085,5.065007,-0.6511819,-0.033597562,1.0074687,-15.900001,22.21875,-26.175001,watch_1
15875934277272,7.025327,-5.0979085,5.065007,-0.6511819,-0.033597562,1.0074687,-14.775001,22.931252,-26.118752,watch_1
15875922722324,7.2550383,-5.562116,4.232305,-0.6511819,-0.033597562,1.0074687,-14.775001,22.931252,-26.118752,watch_1
15875944277220,7.2550383,-5.562116,4.232305,-0.6511819,-0.033597562,1.0074687,-14.75625,22.931252,-25.518751,watch_1
15875941765293,7.2119675,-4.7102714,4.2035913,-0.6511819,-0.033597562,1.0074687,-14.75625,22.931252,-25.518751,watch_1
15875936802532,7.2119675,-4.7102714,4.2035913,-0.6841686,0.018936807,0.9402736,-14.75625,22.931252,-25.518751,watch_1
15875954277168,7.2119675,-4.7102714,4.2035913,-0.6841686,0.018936807,0.9402736,-13.70625,22.743752,-23.643751,watch_1
15875964277116,7.2119675,-4.7102714,4.2035913,-0.6841686,0.018936807,0.9402736,-15.4125,23.5125,-23.90625,watch_1
15875955876543,6.6424756,-4.5092745,4.7395835,-0.8319978,0.020158539,0.90850866,-15.4125,23.5125,-23.90625,watch_1
15875960839303,6.6424756,-4.5092745,4.7395835,-0.8319978,0.020158539,0.90850866,-15.4125,23.5125,-23.90625,watch_1
15875984277012,6.6424756,-4.5092745,4.7395835,-0.8319978,0.020158539,0.90850866,-14.325001,23.60625,-22.2,watch_1
15875974277064,6.6424756,-4.5092745,4.7395835,-0.8319978,0.020158539,0.90850866,-14.325001,23.60625,-22.2,watch_1
15875979912324,6.647261,-4.9639106,4.868796,-1.0189224,-0.06291907,0.9109521,-12.937501,25.35,-22.06875,watch_1
15875974949564,6.647261,-4.9639106,4.868796,-1.0189224,-0.06291907,0.9109521,-12.937501,25.35,-22.06875,watch_1
15875994276959,6.647261,-4.9639106,4.868796,-1.0189224,-0.06291907,0.9109521,-12.937501,25.35,-22.06875,watch_1
15876004276907,6.647261,-4.9639106,4.868796,-1.0189224,-0.06291907,0.9109521,-13.575001,26.400002,-22.3875,watch_1
15875998986282,7.0301127,-5.77747,3.9260237,-1.0519092,-0.15699224,0.92194766,-13.575001,26.400002,-22.3875,watch_1
15875994023522,7.0301127,-5.77747,3.9260237,-1.0519092,-0.15699224,0.92194766,-13.575001,26.400002,-22.3875,watch_1
15876014276855,7.0301127,-5.77747,3.9260237,-1.0519092,-0.15699224,0.92194766,-11.025001,25.0125,-21.525002,watch_1
15876024276803,7.0301127,-5.77747,3.9260237,-1.0519092,-0.15699224,0.92194766,-12.075001,24.88125,-21.6375,watch_1
15876013096543,7.30768,-6.7202425,2.6434708,-0.95417076,-0.15577053,0.8999565,-12.075001,24.88125,-21.6375,watch_1
15876018059303,7.30768,-6.7202425,2.6434708,-0.95417076,-0.15577053,0.8999565,-12.075001,24.88125,-21.6375,watch_1
15876034276751,7.30768,-6.7202425,2.6434708,-0.95417076,-0.15577053,0.8999565,-11.625,24.937502,-21.0,watch_1
15876044276699,7.30768,-6.7202425,2.6434708,-0.95417076,-0.15577053,0.8999565,-13.087501,26.587502,-21.1875,watch_1
15876037133314,7.025327,-6.4570317,2.7296124,-0.7525854,-0.09346231,0.7948878,-13.087501,26.587502,-21.1875,watch_1
15876032170553,7.025327,-6.4570317,2.7296124,-0.7525854,-0.09346231,0.7948878,-13.087501,26.587502,-21.1875,watch_1
15876054276647,7.025327,-6.4570317,2.7296124,-0.7525854,-0.09346231,0.7948878,-12.450001,26.775002,-20.268751,watch_1
15876064276595,7.025327,-6.4570317,2.7296124,-0.7525854,-0.09346231,0.7948878,-12.468751,26.475,-19.5,watch_1
15876056206282,6.71426,-6.145965,3.4761732,-0.7525854,-0.09346231,0.7948878,-12.468751,26.475,-19.5,watch_1
15876051243522,6.71426,-6.145965,3.4761732,-0.5571087,-0.077579826,0.721584,-12.468751,26.475,-19.5,watch_1
15876074276543,6.71426,-6.145965,3.4761732,-0.5571087,-0.077579826,0.721584,-10.293751,27.337502,-20.0625,watch_1
15876084276491,6.599405,-6.236892,3.854239,-0.5571087,-0.077579826,0.721584,-11.493751,25.9125,-20.0625,watch_1
15876075280293,6.599405,-6.236892,3.854239,-0.5571087,-0.077579826,0.721584,-11.493751,25.9125,-20.0625,watch_1
15876070317532,6.599405,-6.236892,3.854239,-0.5094612,-0.12034036,0.67393655,-11.493751,25.9125,-20.0625,watch_1
15876094276439,6.599405,-6.236892,3.854239,-0.5094612,-0.12034036,0.67393655,-11.94375,28.5375,-20.081251,watch_1
15876094353314,6.71426,-7.155736,3.571886,-0.5094612,-0.12034036,0.67393655,-11.94375,28.5375,-20.081251,watch_1
15876089390553,6.71426,-7.155736,3.571886,-0.5558869,-0.17287473,0.6336195,-11.94375,28.5375,-20.081251,watch_1
15876104276387,6.71426,-7.155736,3.571886,-0.5558869,-0.17287473,0.6336195,-11.7375,27.562502,-19.5375,watch_1
15876114276334,6.71426,-7.155736,3.571886,-0.5558869,-0.17287473,0.6336195,-11.887501,27.69375,-19.40625,watch_1
15876108433522,6.71426,-7.155736,3.571886,-0.6658426,-0.15699224,0.5419898,-11.793751,28.3875,-18.75,watch_1
15876124276282,6.71426,-7.155736,3.571886,-0.6658426,-0.15699224,0.5419898,-11.793751,28.3875,-18.75,watch_1
15876113396282,6.8195443,-8.031509,3.045465,-0.6658426,-0.15699224,0.5419898,-11.793751,28.3875,-18.75,watch_1
15876134276230,6.8195443,-8.031509,3.045465,-0.6658426,-0.15699224,0.5419898,-10.51875,28.968752,-18.50625,watch_1
15876132470293,6.8721867,-8.921639,2.6913273,-0.7012728,-0.11178826,0.40515608,-10.51875,28.968752,-18.50625,watch_1
15876127507532,6.8721867,-8.921639,2.6913273,-0.7012728,-0.11178826,0.40515608,-10.51875,28.968752,-18.50625,watch_1
15876144276178,6.8721867,-8.921639,2.6913273,-0.7012728,-0.11178826,0.40515608,-10.70625,27.243752,-18.35625,watch_1
15876154276126,6.8721867,-8.921639,2.6913273,-0.7012728,-0.11178826,0.40515608,-10.837501,27.525002,-18.54375,watch_1
15876146580553,6.8721867,-8.921639,2.6913273,-0.49113527,-0.04703659,0.2451095,-10.837501,27.525002,-18.54375,watch_1
15876151543314,6.8099732,-8.935996,2.8492537,-0.49113527,-0.04703659,0.2451095,-10.837501,27.525002,-18.54375,watch_1
15876164276074,6.8099732,-8.935996,2.8492537,-0.49113527,-0.04703659,0.2451095,-11.868751,27.675001,-18.675001,watch_1
15876170617324,6.795616,-8.993423,3.1698918,-0.49113527,-0.04703659,0.2451095,-10.668751,29.1,-18.69375,watch_1
15876174276022,6.8099732,-8.935996,2.8492537,-0.49113527,-0.04703659,0.2451095,-10.668751,29.1,-18.69375,watch_1
15876165654564,6.795616,-8.993423,3.1698918,-0.100181825,-0.010384701,0.13515383,-10.668751,29.1,-18.69375,watch_1
15876184275970,6.795616,-8.993423,3.1698918,-0.100181825,-0.010384701,0.13515383,-11.118751,29.19375,-19.331251,watch_1
15876194275918,6.795616,-8.993423,3.1698918,-0.100181825,-0.010384701,0.13515383,-9.9375,27.31875,-17.268751,watch_1
15876189690293,6.771688,-8.620144,3.0789645,-0.100181825,-0.010384701,0.13515383,-9.9375,27.31875,-17.268751,watch_1
15876184727532,6.771688,-8.620144,3.0789645,0.13683371,0.032375835,-0.009010255,-9.9375,27.31875,-17.268751,watch_1
15876204275866,6.771688,-8.620144,3.0789645,0.13683371,0.032375835,-0.009010255,-11.512501,27.993752,-18.09375,watch_1
15876214275814,6.771688,-8.620144,3.0789645,0.13683371,0.032375835,-0.009010255,-9.76875,26.062502,-16.5375,watch_1
15876203800553,6.8099732,-8.691928,3.0358937,0.22846343,0.08124501,-0.15683953,-9.76875,26.062502,-16.5375,watch_1
15876208763314,6.8099732,-8.691928,3.0358937,0.22846343,0.08124501,-0.15683953,-9.76875,26.062502,-16.5375,watch_1
15876224275762,6.8099732,-8.691928,3.0358937,0.22846343,0.08124501,-0.15683953,-8.137501,24.243752,-14.437501,watch_1
15876234275709,6.8099732,-8.691928,3.0358937,0.22846343,0.08124501,-0.15683953,-9.13125,24.843752,-15.618751,watch_1
15876227837324,6.74776,-8.653643,3.0646076,0.22846343,0.08124501,-0.15683953,-9.13125,24.843752,-15.618751,watch_1
15876222874564,6.74776,-8.653643,3.0646076,0.2516763,0.13255766,-0.32665995,-9.13125,24.843752,-15.618751,watch_1
15876244275657,6.74776,-8.653643,3.0646076,0.2516763,0.13255766,-0.32665995,-9.76875,24.150002,-13.743751,watch_1
15876254275605,6.74776,-8.653643,3.0646076,0.2516763,0.13255766,-0.32665995,-8.34375,24.91875,-13.931251,watch_1
15876246910293,6.7812595,-8.1942215,3.2416766,0.28344125,0.16432263,-0.4696023,-8.34375,24.91875,-13.931251,watch_1
15876241947532,6.7812595,-8.1942215,3.2416766,0.28344125,0.16432263,-0.4696023,-8.34375,24.91875,-13.931251,watch_1
15876264275553,6.7812595,-8.1942215,3.2416766,0.28344125,0.16432263,-0.4696023,-10.78125,24.768751,-15.375001,watch_1
