# Session ID: 20250816_090633
# Start Time: 1755327993486
# Device ID: watch_1
# Sample Count: 908
# Generated by Watch IMU Recorder
timestamp,accel_x,accel_y,accel_z,gyro_x,gyro_y,gyro_z,mag_x,mag_y,mag_z,watch_name
13062499746105,0.5024927,-2.1164517,9.520443,-0.10262528,-0.017715078,0.04963276,3.0375001,16.29375,-32.11875,watch_1
13062518816730,0.5024927,-2.1164517,9.520443,-0.10262528,-0.017715078,0.04963276,3.0375001,16.29375,-32.11875,watch_1
13062537867876,0.5886344,-2.2217357,9.563514,-0.10262528,-0.017715078,0.04963276,3.0375001,16.29375,-32.11875,watch_1
13062556941938,0.5886344,-2.2217357,9.563514,-0.10262528,-0.017715078,0.04963276,3.0375001,16.29375,-32.11875,watch_1
13062576014959,0.64606214,-2.2169502,9.553943,-0.10262528,-0.017715078,0.04963276,3.0375001,16.29375,-32.11875,watch_1
13062571052199,0.64606214,-2.2169502,9.553943,-0.02932151,-0.010384701,0.021532983,3.0375001,16.29375,-32.11875,watch_1
13062604248449,0.64606214,-2.2169502,9.553943,-0.02932151,-0.010384701,0.021532983,5.5875,11.26875,-26.1,watch_1
13062595088917,0.64606214,-2.1882362,9.5348,-0.028099779,-0.005497783,0.017867794,5.5875,11.26875,-26.1,watch_1
13062590126157,0.64606214,-2.1882362,9.5348,-0.028099779,-0.005497783,0.017867794,5.5875,11.26875,-26.1,watch_1
13062614248397,0.64606214,-2.1882362,9.5348,-0.028099779,-0.005497783,0.017867794,8.85,14.587501,-23.00625,watch_1
13062609199178,0.64606214,-2.1882362,9.5348,-0.028099779,-0.0018325944,0.016646065,8.85,14.587501,-23.00625,watch_1
13062624248344,0.64606214,-2.1882362,9.5348,-0.028099779,-0.0018325944,0.016646065,9.4125,11.231251,-21.150002,watch_1
13062614161938,0.7465607,-2.1690936,9.5252285,-0.028099779,-0.0018325944,0.016646065,9.4125,11.231251,-21.150002,watch_1
13062634248292,0.7465607,-2.1690936,9.5252285,-0.028099779,-0.0018325944,0.016646065,7.6312504,11.606251,-22.987501,watch_1
13062628272199,0.7465607,-2.1690936,9.5252285,-0.035430156,-0.0018325944,0.022754714,7.6312504,11.606251,-22.987501,watch_1
13062633234959,0.7369894,-2.2456641,9.510872,-0.035430156,-0.0018325944,0.022754714,7.6312504,11.606251,-22.987501,watch_1
13062644248240,0.7369894,-2.2456641,9.510872,-0.035430156,-0.0018325944,0.022754714,6.8250003,12.806251,-24.806252,watch_1
13062654248188,0.7369894,-2.2456641,9.510872,-0.035430156,-0.0018325944,0.022754714,4.6875,12.562501,-26.325,watch_1
13062652308917,0.7896315,-2.3557339,9.486943,-0.039095346,-0.0018325944,0.019089524,4.6875,12.562501,-26.325,watch_1
13062647346157,0.7896315,-2.3557339,9.486943,-0.039095346,-0.0018325944,0.019089524,4.6875,12.562501,-26.325,watch_1
13062664248136,0.7896315,-2.3557339,9.486943,-0.039095346,-0.0018325944,0.019089524,5.08125,15.056251,-27.993752,watch_1
13062674248084,0.7896315,-2.3557339,9.486943,-0.039095346,-0.0018325944,0.019089524,6.6375003,16.95,-27.993752,watch_1
13062671381938,0.8470592,-2.379662,9.510872,-0.039095346,-0.0018325944,0.019089524,6.6375003,16.95,-27.993752,watch_1
13062666419178,0.8470592,-2.379662,9.510872,-0.023212861,0.0042760535,0.0129808765,6.8250003,13.14375,-26.718752,watch_1
13062684248032,0.8470592,-2.379662,9.510872,-0.023212861,0.0042760535,0.0129808765,6.8250003,13.14375,-26.718752,watch_1
13062694247980,0.8470592,-2.379662,9.510872,-0.023212861,0.0042760535,0.0129808765,6.6562505,14.418751,-27.88125,watch_1
13062690455949,0.8039884,-2.3318057,9.544372,-0.017104214,0.005497783,0.0056504994,6.6562505,14.418751,-27.88125,watch_1
13062685493188,0.8039884,-2.3318057,9.544372,-0.017104214,0.005497783,0.0056504994,6.6562505,14.418751,-27.88125,watch_1
13062704247928,0.8039884,-2.3318057,9.544372,-0.017104214,0.005497783,0.0056504994,10.35,13.5375,-24.0375,watch_1
13062714247876,0.8039884,-2.3318057,9.544372,-0.017104214,0.005497783,0.0056504994,6.7875004,15.8625,-28.743752,watch_1
13062709528917,0.7848458,-2.2983062,9.530014,-0.017104214,0.005497783,0.0056504994,6.7875004,15.8625,-28.743752,watch_1
13062704566157,0.7848458,-2.2983062,9.530014,-0.02687805,0.0030543238,0.0019853106,6.7875004,15.8625,-28.743752,watch_1
13062724247824,0.7848458,-2.2983062,9.530014,-0.02687805,0.0030543238,0.0019853106,6.80625,14.56875,-28.031252,watch_1
13062734247772,0.7848458,-2.2983062,9.530014,-0.02687805,0.0030543238,0.0019853106,6.5625005,16.21875,-27.35625,watch_1
13062728571938,0.7704889,-2.2983062,9.506086,-0.03176497,0.005497783,0.00076358096,6.5625005,16.21875,-27.35625,watch_1
13062723609178,0.7704889,-2.2983062,9.506086,-0.03176497,0.005497783,0.00076358096,6.5625005,16.21875,-27.35625,watch_1
13062744247719,0.7704889,-2.2983062,9.506086,-0.03176497,0.005497783,0.00076358096,6.4500003,15.225,-27.562502,watch_1
13062754247667,0.7704889,-2.2983062,9.506086,-0.03176497,0.005497783,0.00076358096,5.15625,16.875,-26.7,watch_1
13062742683188,0.7800602,-2.288735,9.515657,-0.028099779,0.009162972,-0.0004581486,5.15625,16.875,-26.7,watch_1
13062747645949,0.7800602,-2.288735,9.515657,-0.028099779,0.009162972,-0.0004581486,5.15625,16.875,-26.7,watch_1
13062764247615,0.7800602,-2.288735,9.515657,-0.028099779,0.009162972,-0.0004581486,8.1,12.281251,-25.181252,watch_1
13062774247563,0.7800602,-2.288735,9.515657,-0.028099779,0.009162972,-0.0004581486,7.1062503,15.88125,-27.69375,watch_1
13062766718917,0.74177504,-2.3365912,9.501301,-0.028099779,0.009162972,-0.0004581486,7.1062503,15.88125,-27.69375,watch_1
13062784247511,0.74177504,-2.3365912,9.501301,-0.014660755,0.01282816,-0.004123337,6.9187503,15.262501,-26.19375,watch_1
13062761756157,0.74177504,-2.3365912,9.501301,-0.014660755,0.01282816,-0.004123337,6.9187503,15.262501,-26.19375,watch_1
13062794247459,0.74177504,-2.3365912,9.501301,-0.014660755,0.01282816,-0.004123337,7.6312504,13.181251,-24.018751,watch_1
13062780830167,0.6843473,-2.2743778,9.539586,0.0012217296,0.01282816,-0.0065667965,7.6312504,13.181251,-24.018751,watch_1
13062785792928,0.6843473,-2.2743778,9.539586,0.0012217296,0.01282816,-0.0065667965,7.6312504,13.181251,-24.018751,watch_1
13062804247407,0.6843473,-2.2743778,9.539586,0.0012217296,0.01282816,-0.0065667965,6.6937504,14.83125,-27.6375,watch_1
13062814247355,0.6843473,-2.2743778,9.539586,0.0012217296,0.01282816,-0.0065667965,7.0687504,16.706251,-27.337502,watch_1
13062799903188,0.6412765,-2.2552354,9.549157,-0.008552107,0.0067195124,-0.010231985,7.0687504,16.706251,-27.337502,watch_1
13062804865949,0.6412765,-2.2552354,9.549157,-0.008552107,0.0067195124,-0.010231985,7.0687504,16.706251,-27.337502,watch_1
13062824247303,0.6412765,-2.2552354,9.549157,-0.008552107,0.0067195124,-0.010231985,5.9812503,15.356251,-29.5125,watch_1
13062823939959,0.6269195,-2.2935205,9.549157,-0.013439025,0.0030543238,-0.010231985,5.9812503,15.356251,-29.5125,watch_1
13062818977199,0.6269195,-2.2935205,9.549157,-0.013439025,0.0030543238,-0.010231985,5.9812503,15.356251,-29.5125,watch_1
13062834247251,0.6269195,-2.2935205,9.549157,-0.013439025,0.0030543238,-0.010231985,6.0,15.000001,-25.987501,watch_1
13062844247199,0.6269195,-2.2935205,9.549157,-0.013439025,0.0030543238,-0.010231985,7.05,15.150001,-26.60625,watch_1
13062843012928,0.61734825,-2.2935205,9.530014,-0.0073303776,0.0042760535,-0.011453714,7.05,15.150001,-26.60625,watch_1
13062838050167,0.61734825,-2.2935205,9.530014,-0.0073303776,0.0042760535,-0.011453714,5.8125,15.95625,-25.800001,watch_1
13062854247147,0.61734825,-2.2935205,9.530014,-0.0073303776,0.0042760535,-0.011453714,5.8125,15.95625,-25.800001,watch_1
13062864247094,0.61734825,-2.2935205,9.530014,-0.0073303776,0.0042760535,-0.011453714,7.0875,15.4125,-25.893751,watch_1
13062862086938,0.5838487,-2.312663,9.520443,-0.0073303776,0.0042760535,-0.011453714,7.0875,15.4125,-25.893751,watch_1
13062857124178,0.5838487,-2.312663,9.520443,-0.0024434591,0.0067195124,-0.013897174,5.64375,14.700001,-27.45,watch_1
13062874247042,0.5838487,-2.312663,9.520443,-0.0024434591,0.0067195124,-0.013897174,5.64375,14.700001,-27.45,watch_1
13062884246990,0.5838487,-2.312663,9.520443,-0.0024434591,0.0067195124,-0.013897174,7.7250004,11.512501,-25.1625,watch_1
13062881159959,0.5886344,-2.2935205,9.5348,-0.0024434591,0.0067195124,-0.013897174,7.7250004,11.512501,-25.1625,watch_1
13062876197199,0.5886344,-2.2935205,9.5348,0.0024434591,0.0042760535,-0.013897174,7.2000003,16.44375,-26.718752,watch_1
13062894246938,0.5886344,-2.2935205,9.5348,0.0024434591,0.0042760535,-0.013897174,7.2000003,16.44375,-26.718752,watch_1
13062904246886,0.5886344,-2.2935205,9.5348,0.0024434591,0.0042760535,-0.013897174,7.4625,13.33125,-25.500002,watch_1
13062900233917,0.6221339,-2.231307,9.544372,-0.0061086477,-0.0006108648,-0.010231985,7.4625,13.33125,-25.500002,watch_1
13062895271157,0.6221339,-2.231307,9.544372,-0.0061086477,-0.0006108648,-0.010231985,7.4625,13.33125,-25.500002,watch_1
13062914246834,0.6221339,-2.231307,9.544372,-0.0061086477,-0.0006108648,-0.010231985,5.925,14.26875,-25.9125,watch_1
13062924246782,0.6221339,-2.231307,9.544372,-0.0061086477,-0.0006108648,-0.010231985,7.1062503,12.88125,-26.081251,watch_1
13062914344178,0.6221339,-2.231307,9.5348,-0.02687805,-0.005497783,-0.004123337,7.1062503,12.88125,-26.081251,watch_1
13062919306938,0.6221339,-2.231307,9.5348,-0.02687805,-0.005497783,-0.004123337,7.1062503,12.88125,-26.081251,watch_1
13062934246730,0.6221339,-2.231307,9.5348,-0.02687805,-0.005497783,-0.004123337,6.7312503,13.218751,-24.562502,watch_1
13062944246678,0.6221339,-2.231307,9.5348,-0.02687805,-0.005497783,-0.004123337,5.90625,14.2875,-26.94375,watch_1
13062933387199,0.67477596,-2.312663,9.463016,-0.020769402,0.0006108648,-0.004123337,5.90625,14.2875,-26.94375,watch_1
13062938349959,0.67477596,-2.312663,9.463016,-0.020769402,0.0006108648,-0.004123337,5.90625,14.2875,-26.94375,watch_1
13062954246626,0.67477596,-2.312663,9.463016,-0.020769402,0.0006108648,-0.004123337,6.1312504,16.29375,-26.531252,watch_1
13062964246574,0.67477596,-2.312663,9.463016,-0.020769402,0.0006108648,-0.004123337,5.9812503,16.59375,-28.331251,watch_1
13062957423917,0.72263247,-2.193022,9.506086,0.0048869182,0.0140498895,-0.0016798781,5.9812503,16.59375,-28.331251,watch_1
13062952461157,0.72263247,-2.193022,9.506086,0.0048869182,0.0140498895,-0.0016798781,5.9812503,16.59375,-28.331251,watch_1
13062974246522,0.72263247,-2.193022,9.506086,0.0048869182,0.0140498895,-0.0016798781,5.9437504,17.737501,-29.025002,watch_1
13062984246469,0.72263247,-2.193022,9.506086,0.0048869182,0.0140498895,-0.0016798781,8.64375,14.475,-25.931252,watch_1
13062976496938,0.76570326,-2.1882362,9.520443,-0.0024434591,0.0140498895,0.00076358096,8.64375,14.475,-25.931252,watch_1
13062971534178,0.76570326,-2.1882362,9.520443,-0.0024434591,0.0140498895,0.00076358096,8.64375,14.475,-25.931252,watch_1
13062994246417,0.76570326,-2.1882362,9.520443,-0.0024434591,0.0140498895,0.00076358096,6.3375,15.806251,-28.500002,watch_1
13063004246365,0.76570326,-2.1882362,9.520443,-0.0024434591,0.0140498895,0.00076358096,8.0625,15.01875,-27.7875,watch_1
13062990608188,0.7322037,-2.2648067,9.553943,-0.017104214,0.009162972,0.008093959,8.0625,15.01875,-27.7875,watch_1
13062995570949,0.7322037,-2.2648067,9.553943,-0.017104214,0.009162972,0.008093959,8.0625,15.01875,-27.7875,watch_1
13063014246313,0.7322037,-2.2648067,9.553943,-0.017104214,0.009162972,0.008093959,6.6937504,14.83125,-27.6375,watch_1
13063024246261,0.7322037,-2.2648067,9.553943,-0.017104214,0.009162972,0.008093959,7.0312505,15.150001,-27.337502,watch_1
13063014643917,0.70348984,-2.3318057,9.553943,-0.018325943,0.0006108648,0.010537418,7.0312505,15.150001,-27.337502,watch_1
13063009681157,0.70348984,-2.3318057,9.553943,-0.018325943,0.0006108648,0.010537418,7.0312505,15.150001,-27.337502,watch_1
13063034246209,0.70348984,-2.3318057,9.553943,-0.018325943,0.0006108648,0.010537418,6.7500005,15.1125,-26.925001,watch_1
13063028755167,0.6843473,-2.408376,9.491729,0.0024434591,-0.0018325944,0.0019853106,6.7500005,15.1125,-26.925001,watch_1
13063033717928,0.6843473,-2.408376,9.491729,0.0024434591,-0.0018325944,0.0019853106,6.7500005,15.1125,-26.925001,watch_1
13063044246157,0.6843473,-2.408376,9.491729,0.0024434591,-0.0018325944,0.0019853106,5.7375,15.712501,-28.556252,watch_1
13063054246105,0.6843473,-2.408376,9.491729,0.0024434591,-0.0018325944,0.0019853106,7.18125,15.356251,-28.781252,watch_1
13063052790949,0.6125626,-2.3557339,9.472587,0.0024434591,-0.0018325944,0.0019853106,7.18125,15.356251,-28.781252,watch_1
13063047828188,0.6125626,-2.3557339,9.472587,0.02565632,0.010384701,-0.004123337,7.18125,15.356251,-28.781252,watch_1
13063064246053,0.6125626,-2.3557339,9.472587,0.02565632,0.010384701,-0.004123337,6.8437505,16.143751,-28.031252,watch_1
13063074246001,0.6125626,-2.3557339,9.472587,0.02565632,0.010384701,-0.004123337,6.15,15.4875,-28.63125,watch_1
13063066902199,0.6652047,-2.312663,9.463016,0.017104214,0.016493348,-0.0029016077,6.15,15.4875,-28.63125,watch_1
13063071864959,0.6652047,-2.312663,9.463016,0.017104214,0.016493348,-0.0029016077,6.15,15.4875,-28.63125,watch_1
13063084245949,0.6652047,-2.312663,9.463016,0.017104214,0.016493348,-0.0029016077,5.925,16.181252,-29.00625,watch_1
13063094245897,0.6652047,-2.312663,9.463016,0.017104214,0.016493348,-0.0029016077,6.3750005,15.76875,-27.0375,watch_1
13063085975167,0.6987042,-2.3318057,9.491729,-0.0061086477,0.020158539,0.006872229,6.3750005,15.76875,-27.0375,watch_1
13063090937928,0.6987042,-2.3318057,9.491729,-0.0061086477,0.020158539,0.006872229,6.3750005,15.76875,-27.0375,watch_1
13063104245844,0.6987042,-2.3318057,9.491729,-0.0061086477,0.020158539,0.006872229,7.55625,14.38125,-27.337502,watch_1
13063114245792,0.6987042,-2.3318057,9.491729,-0.0061086477,0.020158539,0.006872229,8.0625,13.762501,-28.237501,watch_1
13063110011938,0.7082755,-2.3940191,9.491729,-0.015882485,0.01527162,0.011759147,8.0625,13.762501,-28.237501,watch_1
13063105049178,0.7082755,-2.3940191,9.491729,-0.015882485,0.01527162,0.011759147,8.0625,13.762501,-28.237501,watch_1
13063124245740,0.7082755,-2.3940191,9.491729,-0.015882485,0.01527162,0.011759147,6.6375003,14.437501,-28.9125,watch_1
13063134245688,0.7082755,-2.3940191,9.491729,-0.015882485,0.01527162,0.011759147,5.025,15.562501,-25.85625,watch_1
13063129054959,0.66041905,-2.3844478,9.520443,0.0036651888,0.016493348,0.014202606,5.025,15.562501,-25.85625,watch_1
13063124092199,0.66041905,-2.3844478,9.520443,0.0036651888,0.016493348,0.014202606,5.025,15.562501,-25.85625,watch_1
13063144245636,0.66041905,-2.3844478,9.520443,0.0036651888,0.016493348,0.014202606,6.8437505,16.143751,-28.031252,watch_1
13063154245584,0.66041905,-2.3844478,9.520443,0.0036651888,0.016493348,0.014202606,7.0875,14.00625,-26.04375,watch_1
13063143165167,0.6029913,-2.3030918,9.568299,0.019547673,0.01527162,0.019089524,7.0875,14.00625,-26.04375,watch_1
13063148127928,0.6029913,-2.3030918,9.568299,0.019547673,0.01527162,0.019089524,7.0875,14.00625,-26.04375,watch_1
13063164245532,0.6029913,-2.3030918,9.568299,0.019547673,0.01527162,0.019089524,7.70625,15.656251,-26.718752,watch_1
13063174245480,0.6029913,-2.3030918,9.568299,0.019547673,0.01527162,0.019089524,7.0687504,15.450001,-27.656252,watch_1
13063162239178,0.52163535,-2.2743778,9.630513,0.012217295,0.009162972,0.028863361,7.0687504,15.450001,-27.656252,watch_1
13063167201938,0.52163535,-2.2743778,9.630513,0.012217295,0.009162972,0.028863361,7.0687504,15.450001,-27.656252,watch_1
13063184245428,0.52163535,-2.2743778,9.630513,0.012217295,0.009162972,0.028863361,5.9812503,15.337501,-28.781252,watch_1
13063194245376,0.52163535,-2.2743778,9.630513,0.012217295,0.009162972,0.028863361,6.9375005,16.837502,-27.075,watch_1
13063181312199,0.4881358,-2.3030918,9.573085,0.008552107,-0.0030543238,0.03497201,6.9375005,16.837502,-27.075,watch_1
13063186274959,0.4881358,-2.3030918,9.573085,0.008552107,-0.0030543238,0.03497201,6.9375005,16.837502,-27.075,watch_1
13063204245324,0.4881358,-2.3030918,9.573085,0.008552107,-0.0030543238,0.03497201,7.4812503,16.48125,-27.4125,watch_1
13063214245272,0.4881358,-2.3030918,9.573085,0.008552107,-0.0030543238,0.03497201,7.8,15.243751,-26.812502,watch_1
13063200386157,0.55034924,-2.231307,9.520443,0.02565632,-0.0067195124,0.037415467,7.8,15.243751,-26.812502,watch_1
13063205348917,0.55034924,-2.231307,9.520443,0.02565632,-0.0067195124,0.037415467,7.8,15.243751,-26.812502,watch_1
13063224245219,0.55034924,-2.231307,9.520443,0.02565632,-0.0067195124,0.037415467,6.95625,17.1375,-27.825,watch_1
13063234245167,0.55034924,-2.231307,9.520443,0.02565632,-0.0067195124,0.037415467,6.2812505,13.462501,-25.650002,watch_1
13063224421938,0.5838487,-2.1738794,9.539586,0.041538805,-0.005497783,0.042302385,6.2812505,13.462501,-25.650002,watch_1
13063219459178,0.5838487,-2.1738794,9.539586,0.041538805,-0.005497783,0.042302385,6.2812505,13.462501,-25.650002,watch_1
13063244245115,0.5838487,-2.1738794,9.539586,0.041538805,-0.005497783,0.042302385,6.4500003,15.225,-27.562502,watch_1
13063254245063,0.57906306,-2.2073789,9.563514,0.041538805,-0.005497783,0.042302385,6.3562503,15.7875,-28.050001,watch_1
13063243495949,0.57906306,-2.2073789,9.563514,0.041538805,-0.005497783,0.042302385,6.3562503,15.7875,-28.050001,watch_1
13063238533188,0.57906306,-2.2073789,9.563514,0.0537561,-0.010384701,0.043524116,6.3562503,15.7875,-28.050001,watch_1
13063264245011,0.57906306,-2.2073789,9.563514,0.0537561,-0.010384701,0.043524116,5.4187503,16.96875,-29.00625,watch_1
13063274244959,0.57906306,-2.2073789,9.563514,0.062308207,-0.011606431,0.041080657,4.96875,15.618751,-28.63125,watch_1
13063257606157,0.57906306,-2.2073789,9.563514,0.062308207,-0.011606431,0.041080657,4.96875,15.618751,-28.63125,watch_1
13063262568917,0.5886344,-2.2169502,9.57787,0.062308207,-0.011606431,0.041080657,4.96875,15.618751,-28.63125,watch_1
13063284244907,0.5886344,-2.2169502,9.57787,0.062308207,-0.011606431,0.041080657,6.3562503,14.531251,-28.518751,watch_1
13063281641938,0.57427746,-2.2839491,9.582657,0.05497783,-0.0140498895,0.03375028,6.3562503,14.531251,-28.518751,watch_1
13063294244855,0.57427746,-2.2839491,9.582657,0.05497783,-0.0140498895,0.03375028,6.9,15.281251,-27.806252,watch_1
13063276679178,0.57427746,-2.2839491,9.582657,0.05497783,-0.0140498895,0.03375028,6.3562503,14.531251,-28.518751,watch_1
13063304244803,0.57427746,-2.2839491,9.582657,0.05497783,-0.0140498895,0.03375028,8.175,14.437501,-26.550001,watch_1
13063300715949,0.63170516,-2.2217357,9.635299,0.056199558,-0.017715078,0.025198173,8.175,14.437501,-26.550001,watch_1
13063295753188,0.63170516,-2.2217357,9.635299,0.056199558,-0.017715078,0.025198173,8.175,14.437501,-26.550001,watch_1
13063314244751,0.63170516,-2.2217357,9.635299,0.056199558,-0.017715078,0.025198173,5.7562504,14.418751,-27.2625,watch_1
13063324244699,0.63170516,-2.2217357,9.635299,0.056199558,-0.017715078,0.025198173,6.6000004,16.650002,-27.393751,watch_1
13063319788917,0.6891329,-2.2456641,9.683155,0.056199558,-0.017715078,0.025198173,6.6000004,16.650002,-27.393751,watch_1
13063314826157,0.6891329,-2.2456641,9.683155,0.04886918,-0.025045456,0.022754714,7.5000005,16.96875,-29.493752,watch_1
13063334244647,0.6891329,-2.2456641,9.683155,0.04886918,-0.025045456,0.022754714,7.5000005,16.96875,-29.493752,watch_1
13063344244594,0.6891329,-2.2456641,9.683155,0.04886918,-0.025045456,0.022754714,7.33125,15.20625,-27.88125,watch_1
13063338831938,0.80877405,-2.3318057,9.573085,0.043982264,-0.031154104,0.0129808765,7.33125,15.20625,-27.88125,watch_1
13063333869178,0.80877405,-2.3318057,9.573085,0.043982264,-0.031154104,0.0129808765,7.33125,15.20625,-27.88125,watch_1
13063354244542,0.80877405,-2.3318057,9.573085,0.043982264,-0.031154104,0.0129808765,6.2625003,15.075001,-28.425001,watch_1
13063364244490,0.80877405,-2.3318057,9.573085,0.043982264,-0.031154104,0.0129808765,5.86875,15.431251,-27.6375,watch_1
13063357905949,0.7800602,-2.2648067,9.597013,0.043982264,-0.031154104,0.0129808765,5.86875,15.431251,-27.6375,watch_1
13063374244438,0.7800602,-2.2648067,9.597013,0.06597339,-0.025045456,0.0056504994,9.0375,15.8625,-28.331251,watch_1
13063352943188,0.7800602,-2.2648067,9.597013,0.06597339,-0.025045456,0.0056504994,9.0375,15.8625,-28.331251,watch_1
13063384244386,0.7800602,-2.2648067,9.597013,0.06597339,-0.025045456,0.0056504994,4.9875,15.6,-27.618752,watch_1
13063372016157,0.61734825,-2.1738794,9.774082,0.08185588,-0.034819294,-0.0016798781,4.9875,15.6,-27.618752,watch_1
13063376978917,0.61734825,-2.1738794,9.774082,0.06597339,-0.025045456,0.0056504994,4.9875,15.6,-27.618752,watch_1
13063394244334,0.61734825,-2.1738794,9.774082,0.08185588,-0.034819294,-0.0016798781,7.2375,14.512501,-29.2875,watch_1
13063404244282,0.61734825,-2.1738794,9.774082,0.08185588,-0.034819294,-0.0016798781,5.08125,13.950001,-29.04375,watch_1
13063396052928,0.46899325,-2.2839491,10.032507,0.091629714,-0.06658426,0.00076358096,5.08125,13.950001,-29.04375,watch_1
13063391090167,0.46899325,-2.2839491,10.032507,0.091629714,-0.06658426,0.00076358096,5.08125,13.950001,-29.04375,watch_1
13063414244230,0.46899325,-2.2839491,10.032507,0.091629714,-0.06658426,0.00076358096,7.6687503,15.69375,-28.7625,watch_1
13063424244178,0.46899325,-2.2839491,10.032507,0.08307761,-0.09468404,-0.009010255,5.2875004,15.975,-30.225,watch_1
13063410163188,0.46899325,-2.2839491,10.032507,0.08307761,-0.09468404,-0.009010255,5.2875004,15.975,-30.225,watch_1
13063415125949,0.4833502,-2.2169502,10.013365,0.08307761,-0.09468404,-0.009010255,5.2875004,15.975,-30.225,watch_1
13063434244126,0.4833502,-2.2169502,10.013365,0.08307761,-0.09468404,-0.009010255,5.7000003,13.837501,-26.775002,watch_1
13063444244074,0.6939186,-1.9824536,9.817153,0.035430156,-0.10079269,-0.021227552,7.3125005,15.225,-28.9125,watch_1
13063429237199,0.6939186,-1.9824536,9.817153,0.035430156,-0.10079269,-0.021227552,7.3125005,15.225,-28.9125,watch_1
13063434199959,0.6939186,-1.9824536,9.817153,0.035430156,-0.10079269,-0.021227552,7.3125005,15.225,-28.9125,watch_1
13063454244022,0.6939186,-1.9824536,9.817153,0.035430156,-0.10079269,-0.021227552,4.1625004,15.093751,-28.66875,watch_1
13063448310167,0.6939186,-1.9824536,9.817153,-0.02687805,-0.10445788,-0.02489274,5.4,15.4125,-29.00625,watch_1
13063464243969,0.6939186,-1.9824536,9.817153,-0.02687805,-0.10445788,-0.02489274,5.4,15.4125,-29.00625,watch_1
13063453272928,0.7369894,-2.0685952,9.515657,-0.02687805,-0.10445788,-0.02489274,5.4,15.4125,-29.00625,watch_1
13063474243917,0.7369894,-2.0685952,9.515657,-0.02687805,-0.10445788,-0.02489274,6.3,16.95,-29.775002,watch_1
13063467384178,0.7369894,-2.0685952,9.515657,-0.043982264,-0.10079269,-0.005345067,5.8875003,15.900001,-29.718752,watch_1
13063484243865,0.7369894,-2.0685952,9.515657,-0.043982264,-0.10079269,-0.005345067,5.8875003,15.900001,-29.718752,watch_1
13063472346938,0.7369894,-2.1595225,9.271589,-0.043982264,-0.10079269,-0.005345067,5.8875003,15.900001,-29.718752,watch_1
13063494243813,0.7369894,-2.1595225,9.271589,-0.043982264,-0.10079269,-0.005345067,7.2562504,16.06875,-29.1375,watch_1
13063486457199,0.7322037,-2.1834507,9.108877,-0.041538805,-0.09224058,0.031306818,7.2562504,16.06875,-29.1375,watch_1
13063491419959,0.7322037,-2.1834507,9.108877,-0.041538805,-0.09224058,0.031306818,7.2562504,16.06875,-29.1375,watch_1
13063504243761,0.7322037,-2.1834507,9.108877,-0.041538805,-0.09224058,0.031306818,5.9625,16.612501,-29.343752,watch_1
13063514243709,0.7322037,-2.1834507,9.108877,-0.041538805,-0.09224058,0.031306818,6.39375,17.643751,-28.368752,watch_1
13063510493917,0.7896315,-2.3653052,9.166306,-0.02687805,-0.083688475,0.048411034,6.39375,17.643751,-28.368752,watch_1
13063505531157,0.7896315,-2.3653052,9.166306,-0.02687805,-0.083688475,0.048411034,6.39375,17.643751,-28.368752,watch_1
13063524243657,0.7896315,-2.3653052,9.166306,-0.02687805,-0.083688475,0.048411034,5.0625,18.075,-30.31875,watch_1
13063534243605,0.7896315,-2.3653052,9.166306,-0.02687805,-0.083688475,0.048411034,5.7937503,15.975,-26.831251,watch_1
13063529566938,0.7322037,-2.5806592,9.683155,0.05497783,-0.08002329,0.052076224,5.7937503,15.975,-26.831251,watch_1
13063524604178,0.7322037,-2.5806592,9.683155,0.05497783,-0.08002329,0.052076224,5.7937503,15.975,-26.831251,watch_1
13063544243553,0.7322037,-2.5806592,9.683155,0.05497783,-0.08002329,0.052076224,6.39375,14.962501,-29.1375,watch_1
13063554243501,0.7322037,-2.5806592,9.683155,0.05497783,-0.08002329,0.052076224,6.1875005,17.04375,-27.900002,watch_1
13063548609959,0.6987042,-2.5232315,10.109077,0.05497783,-0.08002329,0.052076224,6.1875005,17.04375,-27.900002,watch_1
13063543647199,0.6987042,-2.5232315,10.109077,0.11117739,-0.091018856,0.039858926,6.1875005,17.04375,-27.900002,watch_1
13063564243449,0.6987042,-2.5232315,10.109077,0.11117739,-0.091018856,0.039858926,6.43125,16.81875,-29.60625,watch_1
13063574243397,0.6987042,-2.5232315,10.109077,0.11117739,-0.091018856,0.039858926,5.4375,16.95,-27.975,watch_1
13063567683917,0.7800602,-2.1690936,10.343575,0.11117739,-0.091018856,0.039858926,5.4375,16.95,-27.975,watch_1
13063562721157,0.7800602,-2.1690936,10.343575,0.06475167,-0.11423171,0.022754714,5.4375,16.95,-27.975,watch_1
13063584243344,0.7800602,-2.1690936,10.343575,0.06475167,-0.11423171,0.022754714,6.2625003,18.09375,-30.31875,watch_1
13063594243292,0.7800602,-2.1690936,10.343575,0.06475167,-0.11423171,0.022754714,4.03125,15.225,-29.1375,watch_1
13063586756938,0.4977071,-1.867598,10.850852,-0.100181825,-0.16065744,0.016646065,4.03125,15.225,-29.1375,watch_1
13063581794178,0.4977071,-1.867598,10.850852,-0.100181825,-0.16065744,0.016646065,4.03125,15.225,-29.1375,watch_1
13063604243240,0.4977071,-1.867598,10.850852,-0.100181825,-0.16065744,0.016646065,6.2625003,16.66875,-29.75625,watch_1
13063614243188,0.4977071,-1.867598,10.850852,-0.100181825,-0.16065744,0.016646065,7.9125004,16.59375,-29.41875,watch_1
13063605830949,-0.11964113,-2.1068804,11.587842,-0.27366742,-0.28405213,0.025198173,7.9125004,16.59375,-29.41875,watch_1
13063600868188,-0.11964113,-2.1068804,11.587842,-0.27366742,-0.28405213,0.025198173,7.9125004,16.59375,-29.41875,watch_1
13063624243136,-0.11964113,-2.1068804,11.587842,-0.27366742,-0.28405213,0.025198173,6.3750005,16.087502,-28.81875,watch_1
13063634243084,-0.11964113,-2.1068804,11.587842,-0.27366742,-0.28405213,0.025198173,5.5125003,16.556252,-29.38125,watch_1
13063619941157,-0.11964113,-2.1068804,11.587842,-0.29565856,-0.4893027,0.010537418,5.5125003,16.556252,-29.38125,watch_1
13063624903917,-0.57427746,-2.7960134,12.468401,-0.29565856,-0.4893027,0.010537418,5.5125003,16.556252,-29.38125,watch_1
13063644243032,-0.57427746,-2.7960134,12.468401,-0.29565856,-0.4893027,0.010537418,4.5750003,17.400002,-28.556252,watch_1
13063643977928,-0.53599226,-2.92044,12.439687,-0.29565856,-0.4893027,0.010537418,5.9812503,18.018751,-29.04375,watch_1
13063639015167,-0.53599226,-2.92044,12.439687,-0.32498005,-0.71410096,-0.0481056,5.9812503,18.018751,-29.04375,watch_1
13063654242980,-0.53599226,-2.92044,12.439687,-0.32498005,-0.71410096,-0.0481056,5.9812503,18.018751,-29.04375,watch_1
13063664242928,-0.53599226,-2.92044,12.439687,-0.32498005,-0.71410096,-0.0481056,3.3000002,16.6875,-29.23125,watch_1
13063658088188,-0.1052842,-3.6861434,12.1046915,-0.3933969,-0.98410314,-0.15806127,4.8375,17.175001,-28.800001,watch_1
13063674242876,-0.1052842,-3.6861434,12.1046915,-0.3933969,-0.98410314,-0.15806127,4.8375,17.175001,-28.800001,watch_1
13063663050949,-0.1052842,-3.6861434,12.1046915,-0.3933969,-0.98410314,-0.15806127,4.8375,17.175001,-28.800001,watch_1
13063684242824,-0.1052842,-3.6861434,12.1046915,-0.3933969,-0.98410314,-0.15806127,4.0125003,17.60625,-27.768751,watch_1
13063694242772,0.13878371,-3.7196429,12.420544,-0.42271844,-1.2076796,-0.28145593,4.425,18.65625,-28.125002,watch_1
13063682124959,0.13878371,-3.7196429,12.420544,-0.42271844,-1.2076796,-0.28145593,4.425,18.65625,-28.125002,watch_1
13063677162199,0.13878371,-3.7196429,12.420544,-0.42271844,-1.2076796,-0.28145593,4.425,18.65625,-28.125002,watch_1
13063704242719,0.13878371,-3.7196429,12.420544,-0.42271844,-1.2076796,-0.28145593,3.24375,20.212502,-28.987501,watch_1
13063701197928,0.2536392,-3.0735807,12.262618,-0.6328559,-1.4068216,-0.38041604,3.24375,20.212502,-28.987501,watch_1
13063696235167,0.2536392,-3.0735807,12.262618,-0.6328559,-1.4068216,-0.38041604,3.3375,18.225,-28.2,watch_1
13063714242667,0.2536392,-3.0735807,12.262618,-0.6328559,-1.4068216,-0.38041604,3.3375,18.225,-28.2,watch_1
13063724242615,0.2536392,-3.0735807,12.262618,-0.6328559,-1.4068216,-0.38041604,4.36875,19.5,-28.06875,watch_1
13063715309178,0.44027936,-4.0211387,12.296118,-1.0604613,-1.6377285,-0.5539016,4.36875,19.5,-28.06875,watch_1
13063720271938,0.44027936,-4.0211387,12.296118,-1.0604613,-1.6377285,-0.5539016,4.36875,19.5,-28.06875,watch_1
13063734242563,0.44027936,-4.0211387,12.296118,-1.0604613,-1.6377285,-0.5539016,2.625,19.81875,-27.562502,watch_1
13063744242511,0.44027936,-4.0211387,12.296118,-1.0604613,-1.6377285,-0.5539016,3.3187501,22.03125,-27.4125,watch_1
13063739314959,0.4019942,-4.3992043,11.133205,-1.6407828,-1.8674136,-0.7786999,3.3187501,22.03125,-27.4125,watch_1
13063754242459,0.4019942,-4.3992043,11.133205,-1.6407828,-1.8674136,-0.7786999,1.9125,22.81875,-26.925001,watch_1
13063734352199,0.4019942,-4.3992043,11.133205,-1.6407828,-1.8674136,-0.7786999,1.9125,22.81875,-26.925001,watch_1
13063764242407,0.4019942,-4.3992043,11.133205,-1.6407828,-1.8674136,-0.7786999,0.26250002,23.868752,-26.212502,watch_1
13063758387928,-0.11964113,-4.782056,9.625728,-2.128253,-2.1337507,-0.85689056,0.26250002,23.868752,-26.212502,watch_1
13063753425167,-0.11964113,-4.782056,9.625728,-2.128253,-2.1337507,-0.85689056,0.26250002,23.868752,-26.212502,watch_1
13063774242355,-0.11964113,-4.782056,9.625728,-2.128253,-2.1337507,-0.85689056,1.9687501,25.7625,-25.612501,watch_1
13063784242303,-0.11964113,-4.782056,9.625728,-2.128253,-2.1337507,-0.85689056,-0.95625,23.550001,-25.44375,watch_1
13063772499178,0.52163535,-6.064609,8.505886,-2.4336853,-2.393979,-0.8532254,-0.95625,23.550001,-25.44375,watch_1
13063777461938,0.52163535,-6.064609,8.505886,-2.4336853,-2.393979,-0.8532254,-0.95625,23.550001,-25.44375,watch_1
13063794242251,0.52163535,-6.064609,8.505886,-2.4336853,-2.393979,-0.8532254,-0.50625,26.456251,-26.98125,watch_1
13063804242199,0.52163535,-6.064609,8.505886,-2.4336853,-2.393979,-0.8532254,-1.8375001,27.656252,-24.937502,watch_1
13063791572199,1.6510476,-5.8731833,6.9936223,-2.5534148,-2.5589125,-0.8801034,-1.8375001,27.656252,-24.937502,watch_1
13063814242147,1.6510476,-5.8731833,6.9936223,-2.5534148,-2.5589125,-0.8801034,-3.9750001,25.987501,-25.875002,watch_1
13063796534959,1.6510476,-5.8731833,6.9936223,-2.5534148,-2.5589125,-0.8801034,-1.8375001,27.656252,-24.937502,watch_1
13063824242094,1.6510476,-5.8731833,6.9936223,-2.5534148,-2.5589125,-0.8801034,-4.9125004,27.150002,-26.531252,watch_1
13063815608917,2.5507488,-5.633901,6.4384875,-2.5534148,-2.5589125,-0.8801034,-4.9125004,27.150002,-26.531252,watch_1
13063810646157,2.5507488,-5.633901,6.4384875,-2.3994768,-2.6810856,-0.891099,-4.9125004,27.150002,-26.531252,watch_1
13063834242042,2.5507488,-5.633901,6.4384875,-2.3994768,-2.6810856,-0.891099,-8.137501,27.562502,-25.35,watch_1
13063844241990,2.5507488,-5.633901,6.4384875,-2.3994768,-2.6810856,-0.891099,-11.306251,25.556252,-23.625,watch_1
13063829719178,3.1441689,-5.078766,5.758926,-2.340834,-2.7409503,-0.9863939,-11.306251,25.556252,-23.625,watch_1
13063834681938,3.1441689,-5.078766,5.758926,-2.340834,-2.7409503,-0.9863939,-11.306251,25.556252,-23.625,watch_1
13063854241938,3.1441689,-5.078766,5.758926,-2.340834,-2.7409503,-0.9863939,-10.81875,24.6375,-23.925001,watch_1
13063864241886,3.8141594,-5.4233327,5.529215,-2.3115122,-2.8044803,-1.1268928,-13.425,26.531252,-23.25,watch_1
13063848793188,3.8141594,-5.4233327,5.529215,-2.3115122,-2.8044803,-1.1268928,-13.425,26.531252,-23.25,watch_1
13063853755949,3.8141594,-5.4233327,5.529215,-2.3115122,-2.8044803,-1.1268928,-13.425,26.531252,-23.25,watch_1
13063874241834,3.8141594,-5.4233327,5.529215,-2.3115122,-2.8044803,-1.1268928,-15.675,26.5125,-22.7625,watch_1
13063867866157,3.8141594,-5.4233327,5.529215,-2.3298383,-2.8447974,-1.2710569,-14.887501,25.0125,-20.643751,watch_1
13063884241782,3.8141594,-5.4233327,5.529215,-2.3298383,-2.8447974,-1.2710569,-14.887501,25.0125,-20.643751,watch_1
13063872828917,4.584648,-5.4664035,4.7778687,-2.3298383,-2.8447974,-1.2710569,-14.887501,25.0125,-20.643751,watch_1
13063894241730,4.584648,-5.4664035,4.7778687,-2.3298383,-2.8447974,-1.2710569,-18.13125,25.10625,-18.5625,watch_1
13063886939178,4.584648,-5.4664035,4.7778687,-2.0195189,-2.8484626,-1.4506512,-18.13125,25.10625,-18.5625,watch_1
13063891901938,5.6757755,-6.0981083,3.7680974,-2.0195189,-2.8484626,-1.4506512,-21.975,21.1875,-16.875,watch_1
13063904241678,5.6757755,-6.0981083,3.7680974,-2.0195189,-2.8484626,-1.4506512,-21.975,21.1875,-16.875,watch_1
13063914241626,5.6757755,-6.0981083,3.7680974,-2.0195189,-2.8484626,-1.4506512,-23.831251,21.768751,-15.975,watch_1
13063910975949,7.4129643,-5.0452666,2.681756,-1.5430444,-2.7091854,-1.5935935,-23.831251,21.768751,-15.975,watch_1
13063906013188,7.4129643,-5.0452666,2.681756,-1.5430444,-2.7091854,-1.5935935,-23.831251,21.768751,-15.975,watch_1
13063924241574,7.4129643,-5.0452666,2.681756,-1.5430444,-2.7091854,-1.5935935,-23.737501,20.8875,-13.70625,watch_1
13063934241522,7.4129643,-5.0452666,2.681756,-1.5430444,-2.7091854,-1.5935935,-23.737501,20.8875,-13.70625,watch_1
13063930048917,9.025727,-4.2460637,2.6626134,-0.8393282,-2.4831653,-1.59115,-23.737501,20.8875,-13.70625,watch_1
13063925086157,9.025727,-4.2460637,2.6626134,-0.8393282,-2.4831653,-1.59115,-23.737501,20.8875,-13.70625,watch_1
13063944241469,9.025727,-4.2460637,2.6626134,-0.8393282,-2.4831653,-1.59115,-24.31875,22.2,-12.58125,watch_1
13063954241417,9.025727,-4.2460637,2.6626134,-0.8393282,-2.4831653,-1.59115,-25.425001,20.19375,-12.075001,watch_1
13063949091938,9.992428,-3.5760734,3.1507492,-0.13927718,-2.2082763,-1.5618285,-25.425001,20.19375,-12.075001,watch_1
13063944129178,9.992428,-3.5760734,3.1507492,-0.13927718,-2.2082763,-1.5618285,-25.425001,20.19375,-12.075001,watch_1
13063964241365,9.992428,-3.5760734,3.1507492,-0.13927718,-2.2082763,-1.5618285,-26.19375,21.206251,-10.950001,watch_1
13063974241313,9.992428,-3.5760734,3.1507492,-0.13927718,-2.2082763,-1.5618285,-26.962502,19.050001,-7.93125,watch_1
13063963203188,9.848858,-2.1978076,3.9116669,0.46792242,-2.0225732,-1.4982986,-26.962502,19.050001,-7.93125,watch_1
13063968165949,9.848858,-2.1978076,3.9116669,0.46792242,-2.0225732,-1.4982986,-26.962502,19.050001,-7.93125,watch_1
13063984241261,9.848858,-2.1978076,3.9116669,0.46792242,-2.0225732,-1.4982986,-29.1375,18.84375,-10.78125,watch_1
13063994241209,9.848858,-2.1978076,3.9116669,0.46792242,-2.0225732,-1.4982986,-29.1375,18.84375,-10.78125,watch_1
13063987238917,9.734002,-0.9774681,3.251248,0.70860314,-1.9272784,-1.4347687,-29.1375,18.84375,-10.78125,watch_1
13063982276157,9.734002,-0.9774681,3.251248,0.70860314,-1.9272784,-1.4347687,-29.1375,18.84375,-10.78125,watch_1
13064004241157,9.734002,-0.9774681,3.251248,0.70860314,-1.9272784,-1.4347687,-29.718752,18.581251,-8.64375,watch_1
13064014241105,9.973285,-0.08255238,1.5140585,0.70860314,-1.9272784,-1.4347687,-29.98125,16.125,-8.137501,watch_1
13064006312928,9.973285,-0.08255238,1.5140585,0.70860314,-1.9272784,-1.4347687,-29.98125,16.125,-8.137501,watch_1
13064001350167,9.973285,-0.08255238,1.5140585,0.6853903,-1.7403537,-1.2893828,-29.98125,16.125,-8.137501,watch_1
13064024241053,9.973285,-0.08255238,1.5140585,0.6853903,-1.7403537,-1.2893828,-29.062502,18.75,-6.39375,watch_1
13064034241001,9.973285,-0.08255238,1.5140585,0.6853903,-1.7403537,-1.2893828,-29.04375,16.03125,-4.51875,watch_1
13064025385949,9.858429,0.02751746,-0.017347964,0.6853903,-1.7403537,-1.2893828,-29.04375,16.03125,-4.51875,watch_1
13064020423188,9.858429,0.02751746,-0.017347964,0.7342595,-1.5118903,-1.0694715,-29.681252,16.931252,-4.6875,watch_1
13064044240949,9.858429,0.02751746,-0.017347964,0.7342595,-1.5118903,-1.0694715,-29.681252,16.931252,-4.6875,watch_1
13064054240897,10.336994,-0.2548356,-2.5202405,0.7342595,-1.5118903,-1.0694715,-31.0125,17.19375,-5.15625,watch_1
13064044459959,10.336994,-0.2548356,-2.5202405,0.7342595,-1.5118903,-1.0694715,-31.0125,17.19375,-5.15625,watch_1
13064039497199,10.336994,-0.2548356,-2.5202405,1.2571597,-1.2040145,-0.8214604,-31.0125,17.19375,-5.15625,watch_1
13064064240844,10.336994,-0.2548356,-2.5202405,1.2571597,-1.2040145,-0.8214604,-32.0625,15.150001,-1.8750001,watch_1
13064063532928,10.60499,0.7405786,-3.3720853,1.2571597,-1.2040145,-0.8214604,-32.0625,15.150001,-1.8750001,watch_1
13064058570167,10.60499,0.7405786,-3.3720853,2.2101088,-0.89125174,-0.37308568,-32.0625,15.150001,-1.8750001,watch_1
13064074240792,10.60499,0.7405786,-3.3720853,2.2101088,-0.89125174,-0.37308568,-32.0625,17.04375,-4.5375004,watch_1
13064084240740,10.60499,0.7405786,-3.3720853,2.2101088,-0.89125174,-0.37308568,-32.0625,17.04375,-4.5375004,watch_1
13064094240688,10.60499,0.7405786,-3.3720853,2.831969,-0.61269736,0.03619374,-32.68125,17.1375,-6.2250004,watch_1
13064077644178,10.60499,0.7405786,-3.3720853,2.831969,-0.61269736,0.03619374,-32.68125,17.1375,-6.2250004,watch_1
13064082606938,10.408778,2.9419754,-1.3908281,2.831969,-0.61269736,0.03619374,-32.68125,17.1375,-6.2250004,watch_1
13064104240636,10.408778,2.9419754,-1.3908281,2.831969,-0.61269736,0.03619374,-32.475002,16.0125,-4.9125004,watch_1
13064101679959,8.054241,1.7216359,-0.3475575,2.831969,-0.61269736,0.03619374,-32.475002,16.0125,-4.9125004,watch_1
13064096717199,8.054241,1.7216359,-0.3475575,2.254091,-0.2046397,0.2988656,-33.43125,15.618751,-5.4187503,watch_1
13064114240584,8.054241,1.7216359,-0.3475575,2.254091,-0.2046397,0.2988656,-33.43125,15.618751,-5.4187503,watch_1
13064124240532,6.4271216,-2.3174486,-1.7210377,2.254091,-0.2046397,0.2988656,-33.375,16.368752,-7.2375,watch_1
13064120753917,6.4271216,-2.3174486,-1.7210377,2.254091,-0.2046397,0.2988656,-33.375,16.368752,-7.2375,watch_1
13064134240480,6.4271216,-2.3174486,-1.7210377,1.2657118,0.19730933,0.46990773,-33.300003,17.081251,-6.8625,watch_1
13064115791157,6.4271216,-2.3174486,-1.7210377,1.2657118,0.19730933,0.46990773,-33.300003,17.081251,-6.8625,watch_1
13064144240428,6.4271216,-2.3174486,-1.7210377,1.2657118,0.19730933,0.46990773,-33.318752,15.525001,-7.2937503,watch_1
13064134864178,6.4271216,-2.3174486,-1.7210377,1.0299181,0.7031054,0.54932016,-33.318752,15.525001,-7.2937503,watch_1
13064139826938,7.015756,-2.0350957,-2.0512471,1.0299181,0.7031054,0.54932016,-30.54375,14.868751,-6.1875005,watch_1
13064154240376,7.015756,-2.0350957,-2.0512471,1.0299181,0.7031054,0.54932016,-30.54375,14.868751,-6.1875005,watch_1
13064164240324,7.015756,-2.0350957,-2.0512471,1.0299181,0.7031054,0.54932016,-31.087502,18.393751,-8.19375,watch_1
13064153907199,7.0731835,-0.32183465,0.5138587,0.5583304,1.3017528,0.51999867,-31.087502,18.393751,-8.19375,watch_1
13064158869959,7.0731835,-0.32183465,0.5138587,0.5583304,1.3017528,0.51999867,-31.087502,18.393751,-8.19375,watch_1
13064174240272,7.0731835,-0.32183465,0.5138587,0.5583304,1.3017528,0.51999867,-30.69375,19.462502,-10.14375,watch_1
13064184240219,7.0731835,-0.32183465,0.5138587,0.5583304,1.3017528,0.51999867,-32.287502,18.69375,-10.106251,watch_1
13064177943917,-10.590633,-14.817554,40.464424,-1.1875211,0.68111426,0.4735729,-32.287502,18.69375,-10.106251,watch_1
13064172981157,-10.590633,-14.817554,40.464424,-1.1875211,0.68111426,0.4735729,-32.287502,18.69375,-10.106251,watch_1
13064194240167,-10.590633,-14.817554,40.464424,-1.1875211,0.68111426,0.4735729,-32.081253,20.081251,-7.89375,watch_1
13064204240115,-10.590633,-14.817554,40.464424,-1.1875211,0.68111426,0.4735729,-33.15,17.25,-7.74375,watch_1
13064192054178,10.60499,-7.873583,-22.768305,-1.8790201,-1.3836087,-0.5697841,-33.15,17.25,-7.74375,watch_1
13064197016938,10.60499,-7.873583,-22.768305,-1.8790201,-1.3836087,-0.5697841,-33.15,17.25,-7.74375,watch_1
13064214240063,10.60499,-7.873583,-22.768305,-1.8790201,-1.3836087,-0.5697841,-32.193752,19.087502,-7.8,watch_1
13064224240011,10.60499,-7.873583,-22.768305,-1.8790201,-1.3836087,-0.5697841,-33.225002,17.8125,-7.9500003,watch_1
13064216090949,14.151154,6.081359,5.8067822,-1.8790201,-1.3836087,-0.5697841,-33.225002,17.8125,-7.9500003,watch_1
13064211128188,14.151154,6.081359,5.8067822,2.3640468,-1.1221586,1.0575596,-33.225002,17.8125,-7.9500003,watch_1
13064234239959,14.151154,6.081359,5.8067822,2.3640468,-1.1221586,1.0575596,-32.5875,18.487501,-8.962501,watch_1
13064244239907,14.151154,6.081359,5.8067822,2.3640468,-1.1221586,1.0575596,-31.181252,18.7875,-7.6687503,watch_1
13064235163917,3.062813,-2.1164517,12.387045,2.3640468,-1.1221586,1.0575596,-31.181252,18.7875,-7.6687503,watch_1
13064230201157,3.062813,-2.1164517,12.387045,-0.4630355,-1.1832451,-0.1556178,-31.181252,18.7875,-7.6687503,watch_1
13064254239855,3.062813,-2.1164517,12.387045,-0.4630355,-1.1832451,-0.1556178,-31.968752,18.393751,-7.425,watch_1
13064264239803,3.062813,-2.1164517,12.387045,-0.4630355,-1.1832451,-0.1556178,-31.462502,19.650002,-4.14375,watch_1
13064254237928,3.507878,-14.343776,6.8165536,-0.4630355,-1.1832451,-0.1556178,-31.462502,19.650002,-4.14375,watch_1
13064249275167,3.507878,-14.343776,6.8165536,-1.3402374,-1.7269148,-0.117744185,-31.462502,19.650002,-4.14375,watch_1
13064274239751,3.507878,-14.343776,6.8165536,-1.3402374,-1.7269148,-0.117744185,-30.862501,18.46875,-4.5375004,watch_1
13064268348188,3.507878,-14.343776,6.8165536,1.2632684,-1.3286309,-0.2790125,-30.862501,18.46875,-4.5375004,watch_1
13064284239699,9.064013,-3.8488553,3.964309,1.2632684,-1.3286309,-0.2790125,-32.60625,17.38125,-3.7687502,watch_1
13064273310949,9.064013,-3.8488553,3.964309,1.2632684,-1.3286309,-0.2790125,-32.60625,17.38125,-3.7687502,watch_1
13064294239647,9.064013,-3.8488553,3.964309,1.2632684,-1.3286309,-0.2790125,-32.60625,17.38125,-3.7687502,watch_1
13064287422199,9.724431,0.37686956,2.0261226,1.8130467,-1.2235621,-0.36453354,-32.60625,17.38125,-3.7687502,watch_1
13064292384959,9.724431,0.37686956,2.0261226,1.8130467,-1.2235621,-0.36453354,-32.60625,17.38125,-3.7687502,watch_1
13064304239594,9.724431,0.37686956,2.0261226,1.8130467,-1.2235621,-0.36453354,-32.175003,15.562501,-2.3812501,watch_1
13064314239542,9.724431,0.37686956,2.0261226,1.8130467,-1.2235621,-0.36453354,-32.081253,17.85,-2.4375,watch_1
13064311457928,9.662218,-2.8630123,0.9876375,1.8130467,-1.2235621,-0.36453354,-32.081253,17.85,-2.4375,watch_1
13064306495167,9.662218,-2.8630123,0.9876375,0.9468404,-1.2699878,0.010537418,-32.081253,17.85,-2.4375,watch_1
13064324239490,9.662218,-2.8630123,0.9876375,0.9468404,-1.2699878,0.010537418,-33.0,16.3125,-2.4,watch_1
13064334239438,9.662218,-2.8630123,0.9876375,0.9468404,-1.2699878,0.010537418,-32.287502,17.56875,-4.03125,watch_1
13064330531938,9.164511,-4.604987,0.0735793,0.5546652,-1.1380411,-0.11530073,-32.287502,17.56875,-4.03125,watch_1
13064325569178,9.164511,-4.604987,0.0735793,0.5546652,-1.1380411,-0.11530073,-32.287502,17.56875,-4.03125,watch_1
13064344239386,9.164511,-4.604987,0.0735793,0.5546652,-1.1380411,-0.11530073,-33.600002,17.98125,-4.36875,watch_1
13064354239334,9.164511,-4.604987,0.0735793,0.5546652,-1.1380411,-0.11530073,-33.693752,18.056252,-2.49375,watch_1
13064349574959,9.580862,-2.1595225,-0.2757728,0.5546652,-1.1380411,-0.11530073,-33.693752,18.056252,-2.49375,watch_1
13064364239282,9.580862,-2.1595225,-0.2757728,0.93706656,-0.98776835,-0.24113888,-34.3125,16.556252,-2.5687501,watch_1
13064344612199,9.580862,-2.1595225,-0.2757728,0.93706656,-0.98776835,-0.24113888,-34.3125,16.556252,-2.5687501,watch_1
13064374239230,9.580862,-2.1595225,-0.2757728,0.93706656,-0.98776835,-0.24113888,-34.59375,15.243751,-2.04375,watch_1
13064368647928,9.848858,-0.3074777,-0.9170493,0.93706656,-0.98776835,-0.24113888,-34.59375,15.243751,-2.04375,watch_1
13064363685167,9.848858,-0.3074777,-0.9170493,0.8662062,-0.8619302,-0.12751803,-33.91875,16.050001,-2.325,watch_1
13064384239178,9.848858,-0.3074777,-0.9170493,0.8662062,-0.8619302,-0.12751803,-33.91875,16.050001,-2.325,watch_1
13064394239126,9.848858,-0.3074777,-0.9170493,0.8662062,-0.8619302,-0.12751803,-32.831253,16.48125,-2.98125,watch_1
13064382759178,10.025927,-1.2789637,-3.0418758,0.3555233,-0.7385355,0.022754714,-32.831253,16.48125,-2.98125,watch_1
13064387721938,10.025927,-1.2789637,-3.0418758,0.8662062,-0.8619302,-0.12751803,-32.831253,16.48125,-2.98125,watch_1
13064404239074,10.025927,-1.2789637,-3.0418758,0.3555233,-0.7385355,0.022754714,-32.756252,16.875,-0.975,watch_1
13064414239022,10.025927,-1.2789637,-3.0418758,0.3555233,-0.7385355,0.022754714,-33.975002,15.3,-1.2375001,watch_1
13064401832199,10.289138,-1.8628124,-5.3294144,0.12217296,-0.45875946,0.107054055,-34.0125,17.7,-0.75,watch_1
13064406794959,10.289138,-1.8628124,-5.3294144,0.12217296,-0.45875946,0.107054055,-33.975002,15.3,-1.2375001,watch_1
13064424238969,10.289138,-1.8628124,-5.3294144,0.12217296,-0.45875946,0.107054055,-34.0125,17.7,-0.75,watch_1
13064434238917,10.289138,-1.8628124,-5.3294144,0.12217296,-0.45875946,0.107054055,-31.63125,17.25,1.1625,watch_1
13064420906157,10.41835,-1.2598212,-6.1477594,0.050090913,-0.034819294,0.1632536,-31.63125,17.25,1.1625,watch_1
13064425868917,10.41835,-1.2598212,-6.1477594,0.050090913,-0.034819294,0.1632536,-31.63125,17.25,1.1625,watch_1
13064444238865,10.41835,-1.2598212,-6.1477594,0.050090913,-0.034819294,0.1632536,-33.43125,16.06875,-0.24375,watch_1
13064454238813,10.41835,-1.2598212,-6.1477594,0.050090913,-0.034819294,0.1632536,-31.743752,18.16875,-2.4375,watch_1
13064444941938,10.423136,-0.66161543,-6.8656063,0.050090913,-0.034819294,0.1632536,-31.743752,18.16875,-2.4375,watch_1
13064439979178,10.423136,-0.66161543,-6.8656063,-0.13805544,0.456316,0.27198756,-31.743752,18.16875,-2.4375,watch_1
13064464238761,10.423136,-0.66161543,-6.8656063,-0.13805544,0.456316,0.27198756,-33.75,17.79375,-3.2062502,watch_1
13064459053188,10.293923,-1.125823,-7.1431737,-0.6316342,1.1588105,0.29397866,-33.75,17.79375,-3.2062502,watch_1
13064464015949,10.293923,-1.125823,-7.1431737,-0.6316342,1.1588105,0.29397866,-33.75,17.79375,-3.2062502,watch_1
13064474238709,10.293923,-1.125823,-7.1431737,-0.6316342,1.1588105,0.29397866,-33.131252,18.018751,-3.8812501,watch_1
13064484238657,10.293923,-1.125823,-7.1431737,-0.6316342,1.1588105,0.29397866,-33.131252,18.018751,-3.8812501,watch_1
13064478126157,10.293923,-1.125823,-7.1431737,-1.120326,2.0531166,0.30986115,-32.831253,18.075,-4.2937503,watch_1
13064494238605,9.169296,-0.8003992,-5.9228344,-1.120326,2.0531166,0.30986115,-32.23125,18.300001,-5.11875,watch_1
13064514238501,8.283952,0.3481557,-4.2717867,-1.3744458,2.8741188,0.3404044,-30.45,14.75625,-0.4875,watch_1
13064483088917,8.283952,0.3481557,-4.2717867,-1.3744458,2.8741188,0.3404044,-30.45,14.75625,-0.4875,watch_1
13064502161938,8.283952,0.3481557,-4.2717867,-1.3744458,2.8741188,0.3404044,-30.45,14.75625,-0.4875,watch_1
13064504238553,8.283952,0.3481557,-4.2717867,-1.3744458,2.8741188,0.3404044,-30.45,14.75625,-0.4875,watch_1
13064524238449,8.283952,0.3481557,-4.2717867,-1.3744458,2.8741188,0.3404044,-30.45,14.75625,-0.4875,watch_1
13064497199178,8.283952,0.3481557,-4.2717867,-1.3744458,2.8741188,0.3404044,-30.45,14.75625,-0.4875,watch_1
13064516273188,3.9577286,-1.6953149,6.9649086,-1.269377,3.4825401,0.4723512,-30.45,14.75625,-0.4875,watch_1
13064521235949,3.9577286,-1.6953149,6.9649086,-1.269377,3.4825401,0.4723512,-30.45,14.75625,-0.4875,watch_1
13064534238397,3.9577286,-1.6953149,6.9649086,-1.269377,3.4825401,0.4723512,-30.243752,15.69375,-2.7375002,watch_1
13064544238344,3.9577286,-1.6953149,6.9649086,-1.269377,3.4825401,0.4723512,-29.718752,17.75625,-3.9,watch_1
13064540308917,-6.8099732,-22.68037,15.741782,-1.269377,3.4825401,0.4723512,-29.718752,17.75625,-3.9,watch_1
13064535346157,-6.8099732,-22.68037,15.741782,-0.343306,1.0280855,0.10949751,-29.718752,17.75625,-3.9,watch_1
13064554238292,-6.8099732,-22.68037,15.741782,-0.343306,1.0280855,0.10949751,-31.143751,19.21875,-7.9875,watch_1
13064564238240,-6.8099732,-22.68037,15.741782,-0.343306,1.0280855,0.10949751,-32.79375,18.056252,-9.525001,watch_1
13064559351938,18.147167,3.1286156,12.899109,5.24122,0.74342245,0.38316494,-32.79375,18.056252,-9.525001,watch_1
13064554389178,18.147167,3.1286156,12.899109,5.24122,0.74342245,0.38316494,-32.79375,18.056252,-9.525001,watch_1
13064574238188,18.147167,3.1286156,12.899109,5.24122,0.74342245,0.38316494,-29.325,18.375,-10.3125,watch_1
13064584238136,18.147167,3.1286156,12.899109,5.24122,0.74342245,0.38316494,-31.1625,19.59375,-12.093751,watch_1
13064578425949,6.135197,7.4883385,15.148362,1.8558072,0.52839804,0.3074177,-31.1625,19.59375,-12.093751,watch_1
13064573463188,6.135197,7.4883385,15.148362,1.8558072,0.52839804,0.3074177,-31.1625,19.59375,-12.093751,watch_1
13064594238084,6.135197,7.4883385,15.148362,1.8558072,0.52839804,0.3074177,-31.837502,19.10625,-12.993751,watch_1
13064604238032,6.135197,7.4883385,15.148362,1.8558072,0.52839804,0.3074177,-30.300001,19.275002,-11.83125,watch_1
13064597498917,8.145168,-12.836297,13.83231,-1.9217806,-1.2076796,0.12538,-30.300001,19.275002,-11.83125,watch_1
13064592536157,8.145168,-12.836297,13.83231,-1.9217806,-1.2076796,0.12538,-30.300001,19.275002,-11.83125,watch_1
13064614237980,8.145168,-12.836297,13.83231,-1.9217806,-1.2076796,0.12538,-30.843752,18.16875,-10.03125,watch_1
13064624237928,6.8721867,-7.079166,7.299904,-1.9217806,-1.2076796,0.12538,-33.375,18.6,-12.262501,watch_1
13064616572928,6.8721867,-7.079166,7.299904,-1.9217806,-1.2076796,0.12538,-33.375,18.6,-12.262501,watch_1
13064611610167,6.8721867,-7.079166,7.299904,-0.22601996,-0.9291253,-0.3584249,-33.375,18.6,-12.262501,watch_1
13064634237876,6.8721867,-7.079166,7.299904,-0.22601996,-0.9291253,-0.3584249,-32.2125,18.018751,-10.89375,watch_1
13064644237824,10.801202,2.4251258,4.8735814,-0.22601996,-0.9291253,-0.3584249,-32.79375,19.1625,-8.45625,watch_1
13064635645949,10.801202,2.4251258,4.8735814,-0.22601996,-0.9291253,-0.3584249,-32.79375,19.1625,-8.45625,watch_1
13064630683188,10.801202,2.4251258,4.8735814,0.66095567,-1.2137883,-0.33032513,-32.79375,19.1625,-8.45625,watch_1
13064654237772,10.801202,2.4251258,4.8735814,0.66095567,-1.2137883,-0.33032513,-34.29375,18.0,-9.825001,watch_1
13064664237719,10.801202,2.4251258,4.8735814,0.66095567,-1.2137883,-0.33032513,-33.768753,17.04375,-8.3625,watch_1
13064654719959,8.800801,-0.56111693,4.8735814,-0.62796897,-1.4263693,0.010537418,-33.768753,17.04375,-8.3625,watch_1
13064649757199,8.800801,-0.56111693,4.8735814,-0.62796897,-1.4263693,0.010537418,-33.768753,17.04375,-8.3625,watch_1
13064674237667,8.800801,-0.56111693,4.8735814,-0.62796897,-1.4263693,0.010537418,-32.775,17.53125,-5.4,watch_1
13064673792928,7.60439,-5.825327,3.2991042,-0.9786054,-1.5656464,-0.038331766,-32.775,17.53125,-5.4,watch_1
13064668830167,7.60439,-5.825327,3.2991042,-0.9786054,-1.5656464,-0.038331766,-32.775,17.53125,-5.4,watch_1
13064684237615,7.60439,-5.825327,3.2991042,-0.9786054,-1.5656464,-0.038331766,-31.1625,17.025002,-4.5750003,watch_1
13064694237563,7.60439,-5.825327,3.2991042,-0.9786054,-1.5656464,-0.038331766,-34.36875,16.612501,-5.34375,watch_1
13064687904178,7.60439,-5.825327,3.2991042,-0.0036651888,-1.6194025,-0.19593488,-32.850002,18.09375,-5.6062503,watch_1
13064704237511,9.097511,-4.1407795,1.8586249,-0.0036651888,-1.6194025,-0.19593488,-32.850002,18.09375,-5.6062503,watch_1
13064692866938,9.097511,-4.1407795,1.8586249,-0.0036651888,-1.6194025,-0.19593488,-32.850002,18.09375,-5.6062503,watch_1
13064714237459,9.097511,-4.1407795,1.8586249,-0.0036651888,-1.6194025,-0.19593488,-32.90625,17.34375,-3.7875001,watch_1
13064711939959,9.188439,-1.5182459,0.80578303,0.59742576,-1.5228859,-0.16905683,-33.5625,18.2625,-4.3875003,watch_1
13064724237407,9.188439,-1.5182459,0.80578303,0.59742576,-1.5228859,-0.16905683,-33.5625,18.2625,-4.3875003,watch_1
13064706977199,9.188439,-1.5182459,0.80578303,0.59742576,-1.5228859,-0.16905683,-33.5625,18.2625,-4.3875003,watch_1
13064734237355,9.188439,-1.5182459,0.80578303,0.59742576,-1.5228859,-0.16905683,-32.86875,18.88125,-2.775,watch_1
13064731013917,8.585447,-1.9106688,-0.6011967,0.51556987,-1.3432916,-0.05421425,-32.86875,18.88125,-2.775,watch_1
13064726051157,8.585447,-1.9106688,-0.6011967,0.51556987,-1.3432916,-0.05421425,-32.86875,18.88125,-2.775,watch_1
13064744237303,8.585447,-1.9106688,-0.6011967,0.51556987,-1.3432916,-0.05421425,-31.9125,18.0,-2.5875,watch_1
13064754237251,8.585447,-1.9106688,-0.6011967,0.51556987,-1.3432916,-0.05421425,-33.65625,17.23125,-3.5812502,watch_1
13064750086938,8.834301,-2.7338,-2.0751755,0.49480048,-1.0806198,-0.021227552,-33.65625,17.23125,-3.5812502,watch_1
13064745124178,8.834301,-2.7338,-2.0751755,0.49480048,-1.0806198,-0.021227552,-33.65625,17.23125,-3.5812502,watch_1
13064764237199,8.834301,-2.7338,-2.0751755,0.49480048,-1.0806198,-0.021227552,-32.68125,16.331251,-1.7812501,watch_1
13064774237147,8.834301,-2.7338,-2.0751755,0.49480048,-1.0806198,-0.021227552,-32.025,16.987501,-1.9125,watch_1
13064769129959,9.518648,-1.881955,-3.2476585,0.66095567,-0.73609203,-0.0151189035,-32.025,16.987501,-1.9125,watch_1
13064764167199,9.518648,-1.881955,-3.2476585,0.66095567,-0.73609203,-0.0151189035,-32.025,16.987501,-1.9125,watch_1
13064784237094,9.518648,-1.881955,-3.2476585,0.66095567,-0.73609203,-0.0151189035,-32.23125,17.5125,-0.975,watch_1
13064794237042,9.518648,-1.881955,-3.2476585,0.66095567,-0.73609203,-0.0151189035,-32.100002,19.275002,-3.45,watch_1
13064788203917,10.327422,-0.8578269,-5.1762733,0.5546652,-0.37201664,0.05818487,-32.100002,19.275002,-3.45,watch_1
13064783241157,10.327422,-0.8578269,-5.1762733,0.5546652,-0.37201664,0.05818487,-32.100002,19.275002,-3.45,watch_1
13064804236990,10.327422,-0.8578269,-5.1762733,0.5546652,-0.37201664,0.05818487,-34.875,16.9125,-2.53125,watch_1
13064814236938,10.327422,-0.8578269,-5.1762733,0.5546652,-0.37201664,0.05818487,-31.650002,19.181252,-3.24375,watch_1
13064807276938,11.093125,-1.6857436,-7.9710903,0.27366742,0.056810424,0.16569707,-31.650002,19.181252,-3.24375,watch_1
13064802314178,11.093125,-1.6857436,-7.9710903,0.27366742,0.056810424,0.16569707,-31.650002,19.181252,-3.24375,watch_1
13064824236886,11.093125,-1.6857436,-7.9710903,0.27366742,0.056810424,0.16569707,-34.18125,17.868752,-3.4125001,watch_1
13064834236834,11.093125,-1.6857436,-7.9710903,0.27366742,0.056810424,0.16569707,-32.30625,17.268751,-2.98125,watch_1
13064826350949,10.853844,-2.4849463,-9.354142,-0.17837252,0.7654136,0.14737113,-32.30625,17.268751,-2.98125,watch_1
13064821388188,10.853844,-2.4849463,-9.354142,-0.17837252,0.7654136,0.14737113,-32.30625,17.268751,-2.98125,watch_1
13064844236782,10.853844,-2.4849463,-9.354142,-0.17837252,0.7654136,0.14737113,-33.018753,19.03125,-3.9750001,watch_1
13064854236730,9.45165,-2.6428726,-8.78465,-0.17837252,0.7654136,0.14737113,-34.725002,18.675001,-4.70625,watch_1
13064845423917,9.45165,-2.6428726,-8.78465,-0.17837252,0.7654136,0.14737113,-34.725002,18.675001,-4.70625,watch_1
13064840461157,9.45165,-2.6428726,-8.78465,-0.8454369,1.7611232,0.052076224,-34.725002,18.675001,-4.70625,watch_1
13064864236678,9.45165,-2.6428726,-8.78465,-0.8454369,1.7611232,0.052076224,-33.075,17.175001,-3.6562502,watch_1
13064864497928,8.312666,-2.3557339,-6.9278197,-1.2486076,2.827693,-0.073761925,-33.581253,18.2625,-4.9875,watch_1
13064859535167,8.312666,-2.3557339,-6.9278197,-1.2486076,2.827693,-0.073761925,-33.581253,18.2625,-4.9875,watch_1
13064874236626,8.312666,-2.3557339,-6.9278197,-1.2486076,2.827693,-0.073761925,-33.581253,18.2625,-4.9875,watch_1
13064884236574,8.312666,-2.3557339,-6.9278197,-1.2486076,2.827693,-0.073761925,-32.568752,17.831251,-4.8187504,watch_1
13064883570949,7.140183,-1.8436699,-4.6115675,-0.971275,3.8111854,-0.11530073,-32.568752,17.831251,-4.8187504,watch_1
13064878608188,7.140183,-1.8436699,-4.6115675,-0.971275,3.8111854,-0.11530073,-31.706251,17.6625,-4.9875,watch_1
13064894236522,7.140183,-1.8436699,-4.6115675,-0.971275,3.8111854,-0.11530073,-31.706251,17.6625,-4.9875,watch_1
13064904236469,7.140183,-1.8436699,-4.6115675,-0.971275,3.8111854,-0.11530073,-32.362503,17.6625,-8.418751,watch_1
13064897682199,-9.332008,-17.143377,41.50291,-0.7990111,2.9559746,-0.18616104,-29.025002,17.925001,-7.4812503,watch_1
13064914236417,-9.332008,-17.143377,41.50291,-0.7990111,2.9559746,-0.18616104,-29.025002,17.925001,-7.4812503,watch_1
13064902644959,-9.332008,-17.143377,41.50291,-0.7990111,2.9559746,-0.18616104,-29.025002,17.925001,-7.4812503,watch_1
13064924236365,-9.332008,-17.143377,41.50291,-0.7990111,2.9559746,-0.18616104,-32.643753,19.650002,-10.96875,watch_1
13064921717928,5.063213,-13.166507,-22.529024,1.0848958,1.6560544,-0.63209236,-32.643753,19.650002,-10.96875,watch_1
13064916755167,5.063213,-13.166507,-22.529024,1.0848958,1.6560544,-0.63209236,-32.643753,19.650002,-10.96875,watch_1
13064934236313,5.063213,-13.166507,-22.529024,1.0848958,1.6560544,-0.63209236,-31.875002,18.337502,-10.6125,watch_1
13064944236261,5.063213,-13.166507,-22.529024,1.0848958,1.6560544,-0.63209236,-33.131252,19.48125,-11.868751,watch_1
13064940791938,17.673388,15.54258,10.740783,5.0616255,0.0030543238,0.423482,-31.218752,18.225,-14.437501,watch_1
13064954236209,17.673388,15.54258,10.740783,5.0616255,0.0030543238,0.423482,-31.218752,18.225,-14.437501,watch_1
13064935829178,17.673388,15.54258,10.740783,5.0616255,0.0030543238,0.423482,-31.218752,18.225,-14.437501,watch_1
13064964236157,17.673388,15.54258,10.740783,5.0616255,0.0030543238,0.423482,-31.781252,17.493752,-16.181252,watch_1
13064959834959,2.201397,2.085345,16.162918,0.35430157,0.47464192,-0.1348484,-31.781252,17.493752,-16.181252,watch_1
13064954872199,2.201397,2.085345,16.162918,0.35430157,0.47464192,-0.1348484,-31.781252,17.493752,-16.181252,watch_1
13064974236105,2.201397,2.085345,16.162918,0.35430157,0.47464192,-0.1348484,-33.35625,16.368752,-13.781251,watch_1
13064984236053,2.201397,2.085345,16.162918,0.35430157,0.47464192,-0.1348484,-31.29375,15.918751,-12.76875,watch_1
13064978907928,5.733203,-13.22872,8.324032,-2.0170755,-0.8411608,-0.08964441,-31.29375,15.918751,-12.76875,watch_1
13064973945167,5.733203,-13.22872,8.324032,-2.0170755,-0.8411608,-0.08964441,-31.29375,15.918751,-12.76875,watch_1
13064994236001,5.733203,-13.22872,8.324032,-2.0170755,-0.8411608,-0.08964441,-30.69375,16.1625,-13.89375,watch_1
13065004235949,5.733203,-13.22872,8.324032,-2.0170755,-0.8411608,-0.08964441,-31.63125,18.112501,-12.150001,watch_1
13064993019178,7.6139617,-3.1453655,3.4666018,1.2730422,-0.35857764,0.011759147,-31.63125,18.112501,-12.150001,watch_1
13064997981938,7.6139617,-3.1453655,3.4666018,1.2730422,-0.35857764,0.011759147,-31.63125,18.112501,-12.150001,watch_1
13065014235897,7.6139617,-3.1453655,3.4666018,1.2730422,-0.35857764,0.011759147,-31.25625,17.79375,-14.118751,watch_1
13065024235844,7.6139617,-3.1453655,3.4666018,1.2730422,-0.35857764,0.011759147,-31.462502,16.85625,-11.56875,watch_1
13065017054959,9.164511,4.60738,5.9264235,2.0793836,-0.36835146,0.25610507,-31.462502,16.85625,-11.56875,watch_1
13065012092199,9.164511,4.60738,5.9264235,2.0793836,-0.36835146,0.25610507,-31.462502,16.85625,-11.56875,watch_1
13065034235792,9.164511,4.60738,5.9264235,2.0793836,-0.36835146,0.25610507,-32.006252,14.6625,-11.26875,watch_1
13065044235740,9.164511,4.60738,5.9264235,2.0793836,-0.36835146,0.25610507,-30.562502,12.39375,-8.700001,watch_1
13065036128917,6.910472,1.5206388,5.849853,2.0793836,-0.36835146,0.25610507,-30.562502,12.39375,-8.700001,watch_1
13065031166157,6.910472,1.5206388,5.849853,-0.2480111,-0.44654214,0.79000086,-30.562502,12.39375,-8.700001,watch_1
13065054235688,6.910472,1.5206388,5.849853,-0.2480111,-0.44654214,0.79000086,-30.562502,17.306252,-13.406251,watch_1
13065064235636,6.910472,1.5206388,5.849853,-0.2480111,-0.44654214,0.79000086,-30.300001,16.575,-11.26875,watch_1
13065055201938,6.6424756,-4.4231324,2.7726831,-1.7067562,-0.57482374,0.72280574,-30.300001,16.575,-11.26875,watch_1
13065050239178,6.6424756,-4.4231324,2.7726831,-1.7067562,-0.57482374,0.72280574,-30.300001,16.575,-11.26875,watch_1
13065074235584,6.6424756,-4.4231324,2.7726831,-1.7067562,-0.57482374,0.72280574,-30.093752,20.04375,-13.031251,watch_1
13065074275949,8.006385,-5.0213385,2.2127628,-1.7067562,-0.57482374,0.72280574,-31.275002,15.243751,-8.34375,watch_1
13065084235532,8.006385,-5.0213385,2.2127628,-1.7067562,-0.57482374,0.72280574,-31.275002,15.243751,-8.34375,watch_1
13065069313188,8.006385,-5.0213385,2.2127628,-1.2754856,-0.52961975,0.67760175,-31.275002,15.243751,-8.34375,watch_1
13065094235480,8.006385,-5.0213385,2.2127628,-1.2754856,-0.52961975,0.67760175,-30.54375,16.462502,-7.5000005,watch_1
13065088386157,8.006385,-5.0213385,2.2127628,-0.686612,-0.36835146,0.753349,-29.081251,16.087502,-7.8750005,watch_1
13065104235428,8.006385,-5.0213385,2.2127628,-0.686612,-0.36835146,0.753349,-29.081251,16.087502,-7.8750005,watch_1
13065093348917,8.547162,-3.2602208,2.318047,-0.686612,-0.36835146,0.753349,-29.081251,16.087502,-7.8750005,watch_1
13065114235376,8.547162,-3.2602208,2.318047,-0.686612,-0.36835146,0.753349,-29.812502,20.868752,-10.6125,watch_1
13065107460167,8.547162,-3.2602208,2.318047,-0.8625411,-0.23518294,0.8535308,-29.812502,20.868752,-10.6125,watch_1
13065124235324,7.838887,-3.3367913,2.4951158,-0.8625411,-0.23518294,0.8535308,-29.625002,19.59375,-9.450001,watch_1
13065112422928,7.838887,-3.3367913,2.4951158,-0.8625411,-0.23518294,0.8535308,-29.625002,19.59375,-9.450001,watch_1
13065134235272,7.838887,-3.3367913,2.4951158,-0.8625411,-0.23518294,0.8535308,-30.675001,19.44375,-8.53125,watch_1
13065131495949,7.2646093,-4.0211387,2.030908,-0.8625411,-0.23518294,0.8535308,-30.675001,19.44375,-8.53125,watch_1
13065126533188,7.2646093,-4.0211387,2.030908,-1.3671154,-0.1472184,0.91706073,-30.675001,19.44375,-8.53125,watch_1
13065144235219,7.2646093,-4.0211387,2.030908,-1.3671154,-0.1472184,0.91706073,-29.85,19.78125,-6.7312503,watch_1
13065154235167,7.2215385,-4.1168513,1.3992031,-1.3671154,-0.1472184,0.91706073,-30.7875,19.5375,-7.6875005,watch_1
13065150568917,7.2215385,-4.1168513,1.3992031,-1.3671154,-0.1472184,0.91706073,-30.7875,19.5375,-7.6875005,watch_1
13065164235115,7.2215385,-4.1168513,1.3992031,-1.5882484,-0.054366965,0.93783015,-29.493752,20.56875,-7.7812505,watch_1
13065145606157,7.2215385,-4.1168513,1.3992031,-1.5882484,-0.054366965,0.93783015,-29.493752,20.56875,-7.7812505,watch_1
13065174235063,7.2215385,-4.1168513,1.3992031,-1.5882484,-0.054366965,0.93783015,-27.431252,21.206251,-5.71875,watch_1
13065169611938,7.6666036,-3.7818563,0.82971126,-1.5882484,-0.054366965,0.93783015,-27.431252,21.206251,-5.71875,watch_1
13065164649178,7.6666036,-3.7818563,0.82971126,-1.4917318,0.091018856,0.95859957,-27.431252,21.206251,-5.71875,watch_1
13065184235011,7.6666036,-3.7818563,0.82971126,-1.4917318,0.091018856,0.95859957,-27.018751,19.087502,-3.0,watch_1
13065194234959,7.6666036,-3.7818563,0.82971126,-1.4917318,0.091018856,0.95859957,-27.54375,21.46875,-5.3250003,watch_1
13065188685949,8.437093,-4.2221355,0.69571316,-1.4917318,0.091018856,0.95859957,-27.54375,21.46875,-5.3250003,watch_1
13065183723188,8.437093,-4.2221355,0.69571316,-1.1630865,0.17776164,1.006247,-27.54375,21.46875,-5.3250003,watch_1
13065204234907,8.437093,-4.2221355,0.69571316,-1.1630865,0.17776164,1.006247,-26.775002,19.95,-2.625,watch_1
13065214234855,8.437093,-4.2221355,0.69571316,-1.1630865,0.17776164,1.006247,-27.50625,20.15625,-3.3000002,watch_1
13065207758917,8.169097,-4.9878387,1.1647065,-1.1630865,0.17776164,1.006247,-27.50625,20.15625,-3.3000002,watch_1
13065202796157,8.169097,-4.9878387,1.1647065,-0.63896453,0.3488038,1.0929898,-27.50625,20.15625,-3.3000002,watch_1
13065224234803,8.169097,-4.9878387,1.1647065,-0.63896453,0.3488038,1.0929898,-27.4125,23.868752,-4.3875003,watch_1
13065234234751,8.169097,-4.9878387,1.1647065,-0.63896453,0.3488038,1.0929898,-25.031252,22.331251,-3.80625,watch_1
13065226832928,7.475178,-4.8442693,1.7964116,-0.63896453,0.3488038,1.0929898,-25.031252,22.331251,-3.80625,watch_1
13065221870167,7.475178,-4.8442693,1.7964116,-0.100181825,0.5638282,1.1186461,-25.031252,22.331251,-3.80625,watch_1
13065244234699,7.475178,-4.8442693,1.7964116,-0.100181825,0.5638282,1.1186461,-26.41875,24.862501,-5.25,watch_1
13065254234647,7.475178,-4.8442693,1.7964116,-0.100181825,0.5638282,1.1186461,-25.35,20.8875,-4.14375,watch_1
13065245905949,7.216753,-4.6959143,2.7439694,-0.100181825,0.5638282,1.1186461,-25.35,20.8875,-4.14375,watch_1
13065240943188,7.216753,-4.6959143,2.7439694,0.18325943,0.72509646,1.1895064,-25.35,20.8875,-4.14375,watch_1
13065264234594,7.216753,-4.6959143,2.7439694,0.18325943,0.72509646,1.1895064,-25.968752,23.6625,-6.0937505,watch_1
13065274234542,7.216753,-4.6959143,2.7439694,0.18325943,0.72509646,1.1895064,-23.94375,24.337502,-5.0437503,watch_1
13065260017199,7.216753,-4.6959143,2.7439694,0.12950334,0.8863648,1.2261584,-23.94375,24.337502,-5.0437503,watch_1
13065264979959,7.475178,-4.341777,3.519244,0.12950334,0.8863648,1.2261584,-23.94375,24.337502,-5.0437503,watch_1
13065284234490,7.475178,-4.341777,3.519244,0.12950334,0.8863648,1.2261584,-25.125002,24.7875,-6.675,watch_1
13065294234438,7.475178,-4.341777,3.519244,0.12950334,0.8863648,1.2261584,-22.40625,23.737501,-6.99375,watch_1
13065279090167,7.9680996,-5.188836,4.744369,-0.11362085,0.9474513,1.2945752,-22.40625,23.737501,-6.99375,watch_1
13065284052928,7.9680996,-5.188836,4.744369,-0.11362085,0.9474513,1.2945752,-22.40625,23.737501,-6.99375,watch_1
13065304234386,7.9680996,-5.188836,4.744369,-0.11362085,0.9474513,1.2945752,-24.018751,25.5375,-8.6625,watch_1
13065298164178,7.9680996,-5.188836,4.744369,-0.2944368,0.90957767,1.3080142,-24.018751,25.5375,-8.6625,watch_1
13065303126938,8.441878,-6.0693946,4.892724,-0.2944368,0.90957767,1.3080142,-24.018751,25.5375,-8.6625,watch_1
13065314234334,8.441878,-6.0693946,4.892724,-0.2944368,0.90957767,1.3080142,-21.525002,26.250002,-7.425,watch_1
13065324234282,8.441878,-6.0693946,4.892724,-0.2944368,0.90957767,1.3080142,-22.29375,26.306252,-8.1,watch_1
13065322199959,8.216953,-6.7585278,5.2085767,-0.18692462,0.86803883,1.2994621,-22.29375,26.306252,-8.1,watch_1
13065317237199,8.216953,-6.7585278,5.2085767,-0.18692462,0.86803883,1.2994621,-22.29375,26.306252,-8.1,watch_1
13065334234230,8.216953,-6.7585278,5.2085767,-0.18692462,0.86803883,1.2994621,-23.1,27.056252,-8.418751,watch_1
13065344234178,8.216953,-6.7585278,5.2085767,-0.18692462,0.86803883,1.2994621,-22.63125,26.94375,-6.7500005,watch_1
13065341273917,7.4129643,-6.0023956,5.5675,-0.24434592,0.8936952,1.2237148,-22.63125,26.94375,-6.7500005,watch_1
13065336311157,7.4129643,-6.0023956,5.5675,-0.24434592,0.8936952,1.2237148,-22.63125,26.94375,-6.7500005,watch_1
13065354234126,7.4129643,-6.0023956,5.5675,-0.24434592,0.8936952,1.2237148,-19.650002,28.331251,-7.275,watch_1
13065364234074,7.4129643,-6.0023956,5.5675,-0.24434592,0.8936952,1.2237148,-19.7625,26.04375,-6.9187503,watch_1
13065360346938,6.9009004,-5.9880385,6.7591257,-0.6487384,0.8289435,1.1809543,-19.7625,26.04375,-6.9187503,watch_1
13065355384178,6.9009004,-5.9880385,6.7591257,-0.6487384,0.8289435,1.1809543,-19.7625,26.04375,-6.9187503,watch_1
13065374234022,6.9009004,-5.9880385,6.7591257,-0.6487384,0.8289435,1.1809543,-20.925001,27.91875,-8.55,watch_1
13065384233969,6.9009004,-5.9880385,6.7591257,-0.6487384,0.8289435,1.1809543,-19.5,26.925001,-6.39375,watch_1
13065379389959,6.9966135,-7.500303,8.213962,-0.6487384,0.8289435,1.1809543,-19.5,26.925001,-6.39375,watch_1
13065374427199,6.9966135,-7.500303,8.213962,-1.2901465,0.66156656,1.1614066,-19.5,26.925001,-6.39375,watch_1
13065394233917,6.9966135,-7.500303,8.213962,-1.2901465,0.66156656,1.1614066,-19.181252,28.85625,-8.4375,watch_1
13065404233865,6.9966135,-7.500303,8.213962,-1.2901465,0.66156656,1.1614066,-20.4375,27.7875,-6.3,watch_1
13065398463917,7.5996046,-9.242277,8.778668,-1.7861686,0.3280344,0.97203857,-20.4375,27.7875,-6.3,watch_1
13065393501157,7.5996046,-9.242277,8.778668,-1.7861686,0.3280344,0.97203857,-20.4375,27.7875,-6.3,watch_1
13065414233813,7.5996046,-9.242277,8.778668,-1.7861686,0.3280344,0.97203857,-19.893751,28.875002,-7.3500004,watch_1
13065424233761,7.5996046,-9.242277,8.778668,-1.7861686,0.3280344,0.97203857,-19.25625,28.893751,-4.6687503,watch_1
13065417536938,8.212168,-8.510074,5.4382877,-1.7861686,0.3280344,0.97203857,-19.25625,28.893751,-4.6687503,watch_1
13065412574178,8.212168,-8.510074,5.4382877,-1.6297872,-0.04092794,0.721584,-19.25625,28.893751,-4.6687503,watch_1
13065434233709,8.212168,-8.510074,5.4382877,-1.6297872,-0.04092794,0.721584,-19.331251,29.775002,-6.2250004,watch_1
13065444233657,8.212168,-8.510074,5.4382877,-1.6297872,-0.04092794,0.721584,-16.181252,27.656252,-1.1437501,watch_1
13065431648188,7.7001033,-11.314462,4.4428735,-0.5326741,-0.18142684,0.4809033,-16.181252,27.656252,-1.1437501,watch_1
13065436610949,7.7001033,-11.314462,4.4428735,-0.5326741,-0.18142684,0.4809033,-16.181252,27.656252,-1.1437501,watch_1
13065454233605,7.7001033,-11.314462,4.4428735,-0.5326741,-0.18142684,0.4809033,-19.237501,30.150002,-3.91875,watch_1
13065464233553,7.7001033,-11.314462,4.4428735,-0.5326741,-0.18142684,0.4809033,-16.556252,28.800001,-3.7687502,watch_1
13065455683917,6.3744793,-13.11865,5.519644,0.36896232,-0.11300998,-0.07131846,-16.556252,28.800001,-3.7687502,watch_1
13065450721157,6.3744793,-13.11865,5.519644,0.36896232,-0.11300998,-0.07131846,-16.556252,28.800001,-3.7687502,watch_1
13065474233501,6.3744793,-13.11865,5.519644,0.36896232,-0.11300998,-0.07131846,-17.456251,27.2625,-3.43125,watch_1
13065484233449,6.3744793,-13.11865,5.519644,0.36896232,-0.11300998,-0.07131846,-19.3875,27.281252,-3.075,watch_1
13065469795167,6.192625,-10.539187,6.5198436,0.822224,-0.13622284,-0.7921389,-19.3875,27.281252,-3.075,watch_1
13065474757928,6.192625,-10.539187,6.5198436,0.822224,-0.13622284,-0.7921389,-19.3875,27.281252,-3.075,watch_1
13065494233397,6.192625,-10.539187,6.5198436,0.822224,-0.13622284,-0.7921389,-17.268751,27.88125,-4.33125,watch_1
13065493830949,6.2979093,-6.9499536,6.069993,0.822224,-0.13622284,-0.7921389,-17.268751,27.88125,-4.33125,watch_1
13065504233344,6.2979093,-6.9499536,6.069993,0.42882708,-0.25106543,-1.1720968,-17.8875,27.487501,-3.35625,watch_1
13065488868188,6.2979093,-6.9499536,6.069993,0.42882708,-0.25106543,-1.1720968,-17.8875,27.487501,-3.35625,watch_1
13065514233292,6.2979093,-6.9499536,6.069993,0.42882708,-0.25106543,-1.1720968,-19.893751,28.5375,-4.9875,watch_1
13065512904959,7.0779696,-4.8155556,3.5383866,-0.5717694,-0.37934703,-1.519068,-19.893751,28.5375,-4.9875,watch_1
13065507942199,7.0779696,-4.8155556,3.5383866,-0.5717694,-0.37934703,-1.519068,-19.893751,28.5375,-4.9875,watch_1
13065524233240,7.0779696,-4.8155556,3.5383866,-0.5717694,-0.37934703,-1.519068,-21.075,27.075,-3.24375,watch_1
13065534233188,7.0779696,-4.8155556,3.5383866,-0.5717694,-0.37934703,-1.519068,-21.075,27.075,-3.24375,watch_1
13065531977928,7.422536,-5.605187,0.99720883,-0.957836,-0.36102107,-1.6485714,-21.075,27.075,-3.24375,watch_1
13065527015167,7.422536,-5.605187,0.99720883,-0.957836,-0.36102107,-1.6485714,-21.075,27.075,-3.24375,watch_1
13065544233136,7.422536,-5.605187,0.99720883,-0.957836,-0.36102107,-1.6485714,-20.71875,27.375002,-1.9312501,watch_1
13065554233084,7.422536,-5.605187,0.99720883,-0.957836,-0.36102107,-1.6485714,-21.91875,27.375002,-2.9437501,watch_1
13065551051938,6.8195443,-5.389833,0.39421752,-0.3921752,-0.091018856,-1.4860812,-21.91875,27.375002,-2.9437501,watch_1
13065546089178,6.8195443,-5.389833,0.39421752,-0.3921752,-0.091018856,-1.4860812,-21.91875,27.375002,-2.9437501,watch_1
13065564233032,6.8195443,-5.389833,0.39421752,-0.3921752,-0.091018856,-1.4860812,-24.075,24.91875,-0.0375,watch_1
13065574232980,6.8195443,-5.389833,0.39421752,-0.3921752,-0.091018856,-1.4860812,-24.16875,25.800001,-2.025,watch_1
13065570094959,6.0921264,-2.2791636,1.0450653,0.52778715,0.13622284,-1.1000148,-24.16875,25.800001,-2.025,watch_1
13065565132199,6.0921264,-2.2791636,1.0450653,0.52778715,0.13622284,-1.1000148,-24.16875,25.800001,-2.025,watch_1
13065584232928,6.0921264,-2.2791636,1.0450653,0.52778715,0.13622284,-1.1000148,-22.7625,26.56875,-2.9437501,watch_1
13065594232876,6.0921264,-2.2791636,1.0450653,0.52778715,0.13622284,-1.1000148,-23.118752,25.95,-2.6437502,watch_1
13065584205167,4.843073,0.13758731,2.0500507,0.9798271,0.18631376,-0.37675086,-23.118752,25.95,-2.6437502,watch_1
13065589167928,4.843073,0.13758731,2.0500507,0.9798271,0.18631376,-0.37675086,-23.118752,25.95,-2.6437502,watch_1
13065604232824,4.843073,0.13758731,2.0500507,0.9798271,0.18631376,-0.37675086,-22.837502,27.093752,-2.1375,watch_1
13065614232772,4.843073,0.13758731,2.0500507,0.9798271,0.18631376,-0.37675086,-24.075,25.706251,-4.18125,watch_1
13065603279178,3.7567315,0.8171489,2.088336,0.7990111,0.1753182,0.4356993,-24.075,25.706251,-4.18125,watch_1
13065608241938,3.7567315,0.8171489,2.088336,0.7990111,0.1753182,0.4356993,-24.075,25.706251,-4.18125,watch_1
13065624232719,3.7567315,0.8171489,2.088336,0.7990111,0.1753182,0.4356993,-21.69375,26.7,-3.1312501,watch_1
13065634232667,3.7567315,0.8171489,2.088336,0.7990111,0.1753182,0.4356993,-24.225,25.85625,-5.08125,watch_1
13065627314959,3.4456646,1.6689938,1.5140585,0.7990111,0.1753182,0.4356993,-24.225,25.85625,-5.08125,watch_1
13065622352199,3.4456646,1.6689938,1.5140585,0.5363393,0.2791652,1.3055707,-24.225,25.85625,-5.08125,watch_1
13065644232615,3.4456646,1.6689938,1.5140585,0.5363393,0.2791652,1.3055707,-24.675001,27.225,-5.7000003,watch_1
13065654232563,3.4456646,1.6689938,1.5140585,0.5363393,0.2791652,1.3055707,-21.431252,26.775002,-4.8562503,watch_1
13065646388917,2.885744,1.9322042,2.3228326,0.5363393,0.2791652,1.3055707,-21.431252,26.775002,-4.8562503,watch_1
13065641426157,2.885744,1.9322042,2.3228326,0.3274235,0.5369501,2.2340853,-21.431252,26.775002,-4.8562503,watch_1
13065664232511,2.885744,1.9322042,2.3228326,0.3274235,0.5369501,2.2340853,-21.112501,31.087502,-5.9625,watch_1
13065674232459,2.885744,1.9322042,2.3228326,0.3274235,0.5369501,2.2340853,-18.69375,28.5375,-4.70625,watch_1
13065665461938,1.6845472,1.2765709,3.370889,0.3274235,0.5369501,2.2340853,-18.69375,28.5375,-4.70625,watch_1
13065660499178,1.6845472,1.2765709,3.370889,-0.58154327,0.8741475,2.9597926,-18.69375,28.5375,-4.70625,watch_1
13065684232407,1.6845472,1.2765709,3.370889,-0.58154327,0.8741475,2.9597926,-17.737501,30.35625,-4.3500004,watch_1
13065694232355,1.6845472,1.2765709,3.370889,-0.58154327,0.8741475,2.9597926,-16.48125,30.618752,-2.775,watch_1
13065684535949,0.83748794,-0.6759724,4.5481577,-0.58154327,0.8741475,2.9597926,-16.48125,30.618752,-2.775,watch_1
13065679573188,0.83748794,-0.6759724,4.5481577,-2.4495678,1.0769546,3.576766,-16.48125,30.618752,-2.775,watch_1
13065704232303,0.83748794,-0.6759724,4.5481577,-2.4495678,1.0769546,3.576766,-17.00625,32.850002,-4.36875,watch_1
13065703608917,0.79920274,-4.5284166,5.9934225,-5.437918,1.0024291,3.9274025,-13.63125,34.65,-1.5375,watch_1
13065698646157,0.79920274,-4.5284166,5.9934225,-5.437918,1.0024291,3.9274025,-13.63125,34.65,-1.5375,watch_1
13065724232199,0.79920274,-4.5284166,5.9934225,-5.437918,1.0024291,3.9274025,-11.775001,32.925003,3.7875001,watch_1
13065714232251,0.79920274,-4.5284166,5.9934225,-5.437918,1.0024291,3.9274025,-11.775001,32.925003,3.7875001,watch_1
13065722682928,1.4835501,-8.318648,5.151149,-9.358448,0.47464192,3.9762716,-11.775001,32.925003,3.7875001,watch_1
13065717720167,1.4835501,-8.318648,5.151149,-9.358448,0.47464192,3.9762716,-11.775001,32.925003,3.7875001,watch_1
13065734232147,1.4835501,-8.318648,5.151149,-9.358448,0.47464192,3.9762716,-10.462501,33.131252,8.71875,watch_1
13065744232094,1.4835501,-8.318648,5.151149,-9.358448,0.47464192,3.9762716,-8.793751,27.768751,17.868752,watch_1
13065741755949,3.3690944,-11.587244,-1.4721842,-9.358448,0.47464192,3.9762716,-8.793751,27.768751,17.868752,watch_1
13065736793188,3.3690944,-11.587244,-1.4721842,-13.408482,-0.6884446,3.78446,-7.5000005,31.48125,17.212502,watch_1
13065754232042,3.3690944,-11.587244,-1.4721842,-13.408482,-0.6884446,3.78446,-7.5000005,31.48125,17.212502,watch_1
13065764231990,3.3690944,-11.587244,-1.4721842,-13.408482,-0.6884446,3.78446,-5.3625,29.831251,21.825,watch_1
13065760828917,6.6185474,-8.251649,-18.327227,-13.408482,-0.6884446,3.78446,-5.3625,29.831251,21.825,watch_1
13065755866157,6.6185474,-8.251649,-18.327227,-15.4524355,-1.7818925,3.3568547,-5.3625,29.831251,21.825,watch_1
13065774231938,6.6185474,-8.251649,-18.327227,-15.4524355,-1.7818925,3.3568547,-5.11875,26.737501,28.85625,watch_1
13065784231886,6.6185474,-8.251649,-18.327227,-15.4524355,-1.7818925,3.3568547,-2.0625,21.225,33.225002,watch_1
13065779871938,-0.22013968,-21.369102,-26.88396,-15.4524355,-1.7818925,3.3568547,-2.0625,21.225,33.225002,watch_1
13065774909178,-0.22013968,-21.369102,-26.88396,-9.963204,-0.8949169,2.3916883,-2.0625,21.225,33.225002,watch_1
13065794231834,-0.22013968,-21.369102,-26.88396,-9.963204,-0.8949169,2.3916883,-3.5625002,22.78125,31.312502,watch_1
13065804231782,-0.22013968,-21.369102,-26.88396,-9.963204,-0.8949169,2.3916883,-1.81875,20.681252,33.9,watch_1
13065793983188,-0.22013968,-21.369102,-26.88396,-1.2632684,0.17287473,0.68126696,-1.81875,20.681252,33.9,watch_1
13065798945949,-1.6175481,-28.380074,-24.361925,-1.2632684,0.17287473,0.68126696,-1.81875,20.681252,33.9,watch_1
13065814231730,-1.6175481,-28.380074,-24.361925,-1.2632684,0.17287473,0.68126696,-2.1750002,23.23125,31.425001,watch_1
13065824231678,-1.6175481,-28.380074,-24.361925,-1.2632684,0.17287473,0.68126696,-5.83125,19.612501,33.54375,watch_1
13065818018917,7.499106,-19.014565,-9.110074,3.7507098,0.8277218,-0.20815217,-5.83125,19.612501,33.54375,watch_1
13065813056157,7.499106,-19.014565,-9.110074,3.7507098,0.8277218,-0.20815217,-5.83125,19.612501,33.54375,watch_1
13065834231626,7.499106,-19.014565,-9.110074,3.7507098,0.8277218,-0.20815217,-4.40625,24.956251,29.98125,watch_1
13065844231574,7.499106,-19.014565,-9.110074,3.7507098,0.8277218,-0.20815217,-3.2812502,25.368752,31.087502,watch_1
13065837092928,5.0823555,-14.740984,-1.7258233,3.9486299,1.2455533,-1.2221878,-3.2812502,25.368752,31.087502,watch_1
13065832130167,5.0823555,-14.740984,-1.7258233,3.9486299,1.2455533,-1.2221878,-3.2812502,25.368752,31.087502,watch_1
13065854231522,5.0823555,-14.740984,-1.7258233,3.9486299,1.2455533,-1.2221878,-5.4187503,28.425001,27.337502,watch_1
13065864231469,5.0823555,-14.740984,-1.7258233,3.9486299,1.2455533,-1.2221878,-5.6625004,25.63125,30.487501,watch_1
13065856165949,4.642076,-11.481959,-1.486541,2.8783948,1.1734712,-2.309527,-5.6625004,25.63125,30.487501,watch_1
13065851203188,4.642076,-11.481959,-1.486541,2.8783948,1.1734712,-2.309527,-5.6625004,25.63125,30.487501,watch_1
13065874231417,4.642076,-11.481959,-1.486541,2.8783948,1.1734712,-2.309527,-6.5625005,27.581251,26.85,watch_1
13065884231365,4.642076,-11.481959,-1.486541,2.8783948,1.1734712,-2.309527,-8.025001,26.400002,26.812502,watch_1
13065875239959,4.9722853,-7.5290165,-1.8311075,3.5967717,1.070846,-2.6345072,-8.025001,26.400002,26.812502,watch_1
13065870277199,4.9722853,-7.5290165,-1.8311075,3.5967717,1.070846,-2.6345072,-8.025001,26.400002,26.812502,watch_1
13065894231313,4.9722853,-7.5290165,-1.8311075,3.5967717,1.070846,-2.6345072,-9.31875,27.581251,22.9125,watch_1
13065894312928,4.7042894,-5.6004014,-1.4913267,5.425701,1.0329723,-2.5941901,-9.31875,27.581251,22.9125,watch_1
13065889350167,4.7042894,-5.6004014,-1.4913267,5.425701,1.0329723,-2.5941901,-9.31875,27.581251,22.9125,watch_1
13065904231261,4.7042894,-5.6004014,-1.4913267,5.425701,1.0329723,-2.5941901,-11.38125,28.050001,21.6,watch_1
13065914231209,4.7042894,-5.6004014,-1.4913267,5.425701,1.0329723,-2.5941901,-12.225,30.2625,19.556252,watch_1
13065913386938,3.7567315,-4.4135613,0.030508488,7.095805,0.9315688,-2.5306602,-12.225,30.2625,19.556252,watch_1
13065908424178,3.7567315,-4.4135613,0.030508488,7.095805,0.9315688,-2.5306602,-13.556251,29.587502,16.125,watch_1
13065924231157,3.7567315,-4.4135613,0.030508488,7.095805,0.9315688,-2.5306602,-13.556251,29.587502,16.125,watch_1
13065934231105,3.7567315,-4.4135613,0.030508488,7.095805,0.9315688,-2.5306602,-13.9875,32.68125,14.887501,watch_1
13065927497199,3.7567315,-4.4135613,0.030508488,8.285769,0.7189878,-2.309527,-14.45625,29.00625,11.56875,watch_1
13065944231053,3.5700915,-1.5038891,0.8344969,8.285769,0.7189878,-2.309527,-14.45625,29.00625,11.56875,watch_1
13065932459959,3.5700915,-1.5038891,0.8344969,8.285769,0.7189878,-2.309527,-14.45625,29.00625,11.56875,watch_1
13065954231001,3.5700915,-1.5038891,0.8344969,8.285769,0.7189878,-2.309527,-16.275002,31.031252,5.925,watch_1
13065946571157,3.5700915,-1.5038891,0.8344969,8.599754,0.637132,-1.5044073,-16.275002,31.031252,5.925,watch_1
13065964230949,3.641876,1.5828521,1.7294126,8.599754,0.637132,-1.5044073,-15.356251,31.462502,4.5375004,watch_1
13065951533917,3.641876,1.5828521,1.7294126,8.599754,0.637132,-1.5044073,-15.356251,31.462502,4.5375004,watch_1
13065974230897,3.641876,1.5828521,1.7294126,8.599754,0.637132,-1.5044073,-15.656251,31.893751,1.8375001,watch_1
13065965644178,2.1104696,3.9948175,2.9545379,7.711557,0.77396566,-0.17394374,-16.1625,29.062502,-0.112500004,watch_1
13065984230844,2.1104696,3.9948175,2.9545379,7.711557,0.77396566,-0.17394374,-15.900001,32.15625,-4.3125,watch_1
13065994230792,2.1104696,3.9948175,2.9545379,7.711557,0.77396566,-0.17394374,-15.900001,32.15625,-4.3125,watch_1
13065970606938,2.1104696,3.9948175,2.9545379,7.711557,0.77396566,-0.17394374,-15.900001,32.15625,-4.3125,watch_1
13065989649959,1.4787644,6.660422,5.074579,5.365836,1.0622939,1.0172426,-15.900001,32.15625,-4.3125,watch_1
13065984687199,1.4787644,6.660422,5.074579,5.365836,1.0622939,1.0172426,-15.900001,32.15625,-4.3125,watch_1
13066004230740,1.4787644,6.660422,5.074579,5.365836,1.0622939,1.0172426,-15.225,27.112501,-3.0187502,watch_1
13066014230688,1.4787644,6.660422,5.074579,5.365836,1.0622939,1.0172426,-15.262501,30.16875,-6.6562505,watch_1
13066008723917,1.4452649,7.818548,5.7206407,5.365836,1.0622939,1.0172426,-15.262501,30.16875,-6.6562505,watch_1
13066003761157,1.4452649,7.818548,5.7206407,1.4343106,1.4789037,1.8712316,-15.262501,30.16875,-6.6562505,watch_1
13066024230636,1.4452649,7.818548,5.7206407,1.4343106,1.4789037,1.8712316,-14.08125,31.63125,-8.26875,watch_1
13066034230584,1.4452649,7.818548,5.7206407,1.4343106,1.4789037,1.8712316,-11.925,31.518751,-3.6562502,watch_1
13066027796938,0.64606214,4.2341,4.462016,1.4343106,1.4789037,1.8712316,-11.925,31.518751,-3.6562502,watch_1
13066022834178,0.64606214,4.2341,4.462016,-2.6438227,1.5851941,2.8095198,-11.925,31.518751,-3.6562502,watch_1
13066044230532,0.64606214,4.2341,4.462016,-2.6438227,1.5851941,2.8095198,-8.3625,33.80625,-3.0375001,watch_1
13066054230480,0.64606214,4.2341,4.462016,-2.6438227,1.5851941,2.8095198,-8.2875,34.050003,-0.28125,watch_1
13066046870949,-0.19621146,-3.1692936,3.5144582,-5.626065,1.3787218,3.6073093,-8.2875,34.050003,-0.28125,watch_1
13066041908188,-0.19621146,-3.1692936,3.5144582,-5.626065,1.3787218,3.6073093,-8.2875,34.050003,-0.28125,watch_1
13066064230428,-0.19621146,-3.1692936,3.5144582,-5.626065,1.3787218,3.6073093,-6.7875004,33.600002,2.98125,watch_1
13066074230376,-0.19621146,-3.1692936,3.5144582,-5.626065,1.3787218,3.6073093,-3.6562502,34.6875,3.6750002,watch_1
13066060981157,0.29671,-12.664014,3.4522448,-8.027985,1.0146464,3.838216,-3.6562502,34.6875,3.6750002,watch_1
13066065943917,0.29671,-12.664014,3.4522448,-8.027985,1.0146464,3.838216,-3.6562502,34.6875,3.6750002,watch_1
13066084230324,0.29671,-12.664014,3.4522448,-8.027985,1.0146464,3.838216,-4.18125,34.8375,6.7875004,watch_1
13066094230272,0.29671,-12.664014,3.4522448,-8.027985,1.0146464,3.838216,-3.0375001,36.300003,11.71875,watch_1
13066085017928,2.1343977,-20.49333,-3.0897322,-8.027985,1.0146464,3.838216,-3.0375001,36.300003,11.71875,watch_1
13066080055167,2.1343977,-20.49333,-3.0897322,-10.703572,0.49663305,3.4655886,-3.0375001,36.300003,11.71875,watch_1
13066104230219,2.1343977,-20.49333,-3.0897322,-10.703572,0.49663305,3.4655886,-1.9687501,34.5,15.806251,watch_1
13066114230167,2.1343977,-20.49333,-3.0897322,-10.703572,0.49663305,3.4655886,-0.63750005,33.75,19.21875,watch_1
13066104090949,5.757131,-14.482559,-9.598209,-10.703572,0.49663305,3.4655886,-0.63750005,33.75,19.21875,watch_1
13066099128188,5.757131,-14.482559,-9.598209,-11.738378,-0.4905244,3.0795221,-0.63750005,33.75,19.21875,watch_1
13066124230115,5.757131,-14.482559,-9.598209,-11.738378,-0.4905244,3.0795221,0.93750006,30.69375,25.66875,watch_1
13066118202199,5.757131,-14.482559,-9.598209,-9.969314,0.18264857,2.1424556,0.93750006,30.69375,25.66875,watch_1
13066134230063,5.757131,-14.482559,-9.598209,-9.969314,0.18264857,2.1424556,0.41250002,29.75625,27.150002,watch_1
13066123164959,-1.2921243,-13.104293,-15.833905,-9.969314,0.18264857,2.1424556,0.41250002,29.75625,27.150002,watch_1
13066144230011,-1.2921243,-13.104293,-15.833905,-9.969314,0.18264857,2.1424556,-0.6,27.018751,29.343752,watch_1
13066137275167,-1.2921243,-13.104293,-15.833905,-5.127599,0.70799226,0.6666062,1.25625,24.525002,31.3875,watch_1
13066154229959,-1.2921243,-13.104293,-15.833905,-5.127599,0.70799226,0.6666062,1.25625,24.525002,31.3875,watch_1
13066142237928,-3.2015967,-27.743582,-21.174686,-5.127599,0.70799226,0.6666062,1.25625,24.525002,31.3875,watch_1
13066164229907,-3.2015967,-27.743582,-21.174686,-5.127599,0.70799226,0.6666062,0.35625002,26.156252,29.831251,watch_1
13066161311938,4.9292145,-24.742983,-10.584053,-5.127599,0.70799226,0.6666062,0.35625002,26.156252,29.831251,watch_1
13066156349178,4.9292145,-24.742983,-10.584053,0.9639446,0.91812974,-0.039553493,0.35625002,26.156252,29.831251,watch_1
13066174229855,4.9292145,-24.742983,-10.584053,0.9639446,0.91812974,-0.039553493,-0.7875,28.312502,27.45,watch_1
13066184229803,4.9292145,-24.742983,-10.584053,0.9639446,0.91812974,-0.039553493,-0.8625,27.6,27.50625,watch_1
13066180354959,4.1635113,-15.109479,-3.3050864,0.9639446,0.91812974,-0.039553493,-0.8625,27.6,27.50625,watch_1
13066175392199,4.1635113,-15.109479,-3.3050864,3.6578584,1.1050544,-1.388343,-3.15,27.487501,25.518751,watch_1
13066194229751,4.1635113,-15.109479,-3.3050864,3.6578584,1.1050544,-1.388343,-3.15,27.487501,25.518751,watch_1
13066204229699,4.1635113,-15.109479,-3.3050864,3.6578584,1.1050544,-1.388343,-4.0875,28.331251,26.19375,watch_1
13066194465167,3.426522,-10.902896,-2.0656042,3.5026987,0.9364557,-2.3706136,-4.0875,28.331251,26.19375,watch_1
13066199427928,3.426522,-10.902896,-2.0656042,3.5026987,0.9364557,-2.3706136,-4.0875,28.331251,26.19375,watch_1
13066214229647,3.426522,-10.902896,-2.0656042,3.5026987,0.9364557,-2.3706136,-2.5875,26.94375,27.525002,watch_1
13066224229594,3.426522,-10.902896,-2.0656042,3.5026987,0.9364557,-2.3706136,-5.9437504,29.400002,24.712502,watch_1
13066213539178,4.0151563,-7.18445,-3.8841493,3.4587164,0.7800743,-2.8617487,-5.9437504,29.400002,24.712502,watch_1
13066218501938,4.0151563,-7.18445,-3.8841493,3.4587164,0.7800743,-2.8617487,-5.9437504,29.400002,24.712502,watch_1
13066234229542,4.0151563,-7.18445,-3.8841493,3.4587164,0.7800743,-2.8617487,-6.4500003,32.4,20.4375,watch_1
13066244229490,4.0151563,-7.18445,-3.8841493,3.4587164,0.7800743,-2.8617487,-4.0875,29.156252,21.46875,watch_1
13066237574959,3.2638102,-5.298906,-3.5443685,4.7061024,0.85215634,-2.8800747,-4.0875,29.156252,21.46875,watch_1
13066232612199,3.2638102,-5.298906,-3.5443685,4.7061024,0.85215634,-2.8800747,-4.0875,29.156252,21.46875,watch_1
13066254229438,3.2638102,-5.298906,-3.5443685,4.7061024,0.85215634,-2.8800747,-8.2875,31.10625,17.15625,watch_1
13066264229386,3.2638102,-5.298906,-3.5443685,4.7061024,0.85215634,-2.8800747,-8.793751,32.025,17.00625,watch_1
13066256648917,1.4931214,-4.1312084,-0.2757728,6.243038,0.7055488,-2.6784894,-8.793751,32.025,17.00625,watch_1
13066251686157,1.4931214,-4.1312084,-0.2757728,6.243038,0.7055488,-2.6784894,-8.793751,32.025,17.00625,watch_1
13066274229334,1.4931214,-4.1312084,-0.2757728,6.243038,0.7055488,-2.6784894,-11.981251,31.968752,13.89375,watch_1
13066284229282,1.4931214,-4.1312084,-0.2757728,6.243038,0.7055488,-2.6784894,-10.9125,33.99375,11.34375,watch_1
13066275721938,0.90448695,-1.9298115,1.9543378,6.243038,0.7055488,-2.6784894,-10.9125,33.99375,11.34375,watch_1
13066270759178,0.90448695,-1.9298115,1.9543378,7.332821,0.24495678,-2.2569926,-10.9125,33.99375,11.34375,watch_1
13066294229230,0.90448695,-1.9298115,1.9543378,7.332821,0.24495678,-2.2569926,-11.71875,32.86875,6.8437505,watch_1
13066304229178,0.90448695,-1.9298115,1.9543378,7.332821,0.24495678,-2.2569926,-12.187501,31.406252,6.5062504,watch_1
13066294795949,1.1006985,0.90807617,3.437888,7.332821,0.24495678,-2.2569926,-12.187501,31.406252,6.5062504,watch_1
13066289833188,1.1006985,0.90807617,3.437888,7.195987,-0.055588696,-1.4579815,-12.187501,31.406252,6.5062504,watch_1
13066314229126,1.1006985,0.90807617,3.437888,7.195987,-0.055588696,-1.4579815,-11.53125,34.143753,1.5187501,watch_1
13066324229074,1.1006985,0.90807617,3.437888,7.195987,-0.055588696,-1.4579815,-12.76875,32.60625,0.22500001,watch_1
13066308906157,1.1006985,0.90807617,3.437888,5.937606,-0.09590577,-0.56611896,-12.76875,32.60625,0.22500001,watch_1
13066313868917,1.5314065,1.4871392,3.3517463,5.937606,-0.09590577,-0.56611896,-12.76875,32.60625,0.22500001,watch_1
13066334229022,1.5314065,1.4871392,3.3517463,5.937606,-0.09590577,-0.56611896,-12.1125,33.2625,-0.63750005,watch_1
13066332942928,2.062613,0.9176475,3.246462,5.937606,-0.09590577,-0.56611896,-12.1125,33.2625,-0.63750005,watch_1
13066327980167,2.062613,0.9176475,3.246462,4.2174106,0.13377939,0.42103854,-12.1125,33.2625,-0.63750005,watch_1
13066344228969,2.062613,0.9176475,3.246462,4.2174106,0.13377939,0.42103854,-12.262501,32.30625,-2.8875,watch_1
13066354228917,2.062613,0.9176475,3.246462,4.2174106,0.13377939,0.42103854,-11.1,32.362503,-4.36875,watch_1
13066352015949,2.105684,3.0089746,3.9547377,1.9535456,0.5528326,1.3923136,-11.1,32.362503,-4.36875,watch_1
13066347053188,2.105684,3.0089746,3.9547377,1.9535456,0.5528326,1.3923136,-8.325001,29.79375,-0.6,watch_1
13066364228865,2.105684,3.0089746,3.9547377,1.9535456,0.5528326,1.3923136,-8.325001,29.79375,-0.6,watch_1
13066374228813,2.105684,3.0089746,3.9547377,1.9535456,0.5528326,1.3923136,-11.887501,33.075,-2.9250002,watch_1
13066371088917,1.550549,4.2388854,4.462016,-1.0775654,0.83993906,2.2829545,-11.887501,33.075,-2.9250002,watch_1
13066366126157,1.550549,4.2388854,4.462016,-1.0775654,0.83993906,2.2829545,-11.887501,33.075,-2.9250002,watch_1
13066384228761,1.550549,4.2388854,4.462016,-1.0775654,0.83993906,2.2829545,-8.868751,31.743752,-1.8750001,watch_1
13066394228709,1.550549,4.2388854,4.462016,-1.0775654,0.83993906,2.2829545,-8.118751,35.79375,-1.44375,watch_1
13066390131938,0.7082755,0.70229346,3.3613176,-4.381122,0.78984815,3.0355399,-8.118751,35.79375,-1.44375,watch_1
13066385169178,0.7082755,0.70229346,3.3613176,-4.381122,0.78984815,3.0355399,-8.118751,35.79375,-1.44375,watch_1
13066404228657,0.7082755,0.70229346,3.3613176,-4.381122,0.78984815,3.0355399,-4.89375,32.98125,3.4125001,watch_1
13066414228605,0.7082755,0.70229346,3.3613176,-4.381122,0.78984815,3.0355399,-2.68125,32.7,4.125,watch_1
13066409205949,0.09092726,-7.8687973,1.8107685,-4.381122,0.78984815,3.0355399,-2.68125,32.7,4.125,watch_1
13066404243188,0.09092726,-7.8687973,1.8107685,-6.907659,0.5406153,3.5254533,-2.68125,32.7,4.125,watch_1
13066424228553,0.09092726,-7.8687973,1.8107685,-6.907659,0.5406153,3.5254533,-1.4625001,31.875002,9.8625,watch_1
13066434228501,0.09092726,-7.8687973,1.8107685,-6.907659,0.5406153,3.5254533,-2.7,32.662502,11.400001,watch_1
13066428278917,0.148355,-19.000208,-0.54376894,-6.907659,0.5406153,3.5254533,-2.7,32.662502,11.400001,watch_1
13066423316157,0.148355,-19.000208,-0.54376894,-8.951612,0.42210758,3.3544111,-2.7,32.662502,11.400001,watch_1
13066444228449,0.148355,-19.000208,-0.54376894,-8.951612,0.42210758,3.3544111,-2.23125,30.6375,16.743752,watch_1
13066454228397,0.148355,-19.000208,-0.54376894,-8.951612,0.42210758,3.3544111,1.5187501,31.781252,18.35625,watch_1
13066447352928,2.6081767,-21.225533,-6.611967,-8.951612,0.42210758,3.3544111,1.5187501,31.781252,18.35625,watch_1
13066442390167,2.6081767,-21.225533,-6.611967,-10.967466,-0.12278382,2.686125,1.5187501,31.781252,18.35625,watch_1
13066464228344,2.6081767,-21.225533,-6.611967,-10.967466,-0.12278382,2.686125,2.49375,28.650002,25.312502,watch_1
13066474228292,2.6081767,-21.225533,-6.611967,-10.967466,-0.12278382,2.686125,1.6875001,29.362501,26.325,watch_1
13066466425949,2.9862428,-7.7156568,-7.7461653,-10.967466,-0.12278382,2.686125,1.6875001,29.362501,26.325,watch_1
13066461463188,2.9862428,-7.7156568,-7.7461653,-11.875212,-0.39400777,2.1925464,1.6875001,29.362501,26.325,watch_1
13066484228240,2.9862428,-7.7156568,-7.7461653,-11.875212,-0.39400777,2.1925464,-0.3,24.225,29.79375,watch_1
13066494228188,2.9862428,-7.7156568,-7.7461653,-11.875212,-0.39400777,2.1925464,0.90000004,19.143751,36.09375,watch_1
13066480537199,-7.6570325,-11.740384,-19.107286,-11.341315,0.2999346,0.69104075,0.63750005,19.875,33.675003,watch_1
13066504228136,-7.6570325,-11.740384,-19.107286,-11.341315,0.2999346,0.69104075,0.63750005,19.875,33.675003,watch_1
13066485499959,-7.6570325,-11.740384,-19.107286,-11.341315,0.2999346,0.69104075,0.63750005,19.875,33.675003,watch_1
13066514228084,0.8422736,-29.490343,-23.634508,-6.3310027,0.4893027,0.07773254,1.7062501,16.987501,36.393753,watch_1
13066504572928,0.8422736,-29.490343,-23.634508,-6.3310027,0.4893027,0.07773254,3.3187501,16.275002,39.28125,watch_1
13066499610167,0.8422736,-29.490343,-23.634508,-6.3310027,0.4893027,0.07773254,3.3187501,16.275002,39.28125,watch_1
13066524228032,0.8422736,-29.490343,-23.634508,-6.3310027,0.4893027,0.07773254,3.3187501,16.275002,39.28125,watch_1
13066523646938,4.627719,-21.852453,-15.111273,-6.3310027,0.4893027,0.07773254,3.3187501,16.275002,39.28125,watch_1
13066518684178,4.627719,-21.852453,-15.111273,1.7812817,0.74464417,-0.7359393,3.3187501,16.275002,39.28125,watch_1
13066534227980,4.627719,-21.852453,-15.111273,1.7812817,0.74464417,-0.7359393,1.5937501,18.16875,39.61875,watch_1
13066544227928,4.627719,-21.852453,-15.111273,1.7812817,0.74464417,-0.7359393,1.5937501,19.7625,38.006252,watch_1
13066542719959,0.22971097,-13.1282215,-7.865806,5.9363837,1.0635155,-1.8855869,1.5937501,19.7625,38.006252,watch_1
13066537757199,0.22971097,-13.1282215,-7.865806,5.9363837,1.0635155,-1.8855869,-0.63750005,21.825,34.2,watch_1
13066554227876,0.22971097,-13.1282215,-7.865806,5.9363837,1.0635155,-1.8855869,-0.63750005,21.825,34.2,watch_1
13066564227824,0.22971097,-13.1282215,-7.865806,5.9363837,1.0635155,-1.8855869,-2.9625,20.94375,34.74375,watch_1
13066561793917,1.4356936,-11.166107,-5.008776,5.9363837,1.0635155,-1.8855869,-2.9625,20.94375,34.74375,watch_1
13066556831157,1.4356936,-11.166107,-5.008776,6.691413,0.92179495,-2.589303,-2.9625,20.94375,34.74375,watch_1
13066574227772,1.4356936,-11.166107,-5.008776,6.691413,0.92179495,-2.589303,-4.1625004,26.175001,27.2625,watch_1
13066584227719,1.4356936,-11.166107,-5.008776,6.691413,0.92179495,-2.589303,-5.45625,28.48125,24.281252,watch_1
13066580866938,2.603391,-8.10808,-4.846064,7.601601,0.650571,-2.924057,-5.45625,28.48125,24.281252,watch_1
13066575904178,2.603391,-8.10808,-4.846064,7.601601,0.650571,-2.924057,-5.45625,28.48125,24.281252,watch_1
13066594227667,2.603391,-8.10808,-4.846064,7.601601,0.650571,-2.924057,-4.6875,29.23125,20.94375,watch_1
13066604227615,2.603391,-8.10808,-4.846064,7.601601,0.650571,-2.924057,-7.3875003,28.987501,22.125,watch_1
13066599909959,2.6368906,-4.1551366,-5.047061,9.255823,0.47464192,-2.9900303,-7.3875003,28.987501,22.125,watch_1
13066594947199,2.6368906,-4.1551366,-5.047061,9.255823,0.47464192,-2.9900303,-7.3875003,28.987501,22.125,watch_1
13066614227563,2.6368906,-4.1551366,-5.047061,9.255823,0.47464192,-2.9900303,-7.8,31.781252,15.39375,watch_1
13066624227511,2.6368906,-4.1551366,-5.047061,9.255823,0.47464192,-2.9900303,-8.418751,33.768753,10.78125,watch_1
13066618983917,1.9716859,-1.3124632,-2.1278176,10.850181,0.22052218,-2.6381721,-8.418751,33.768753,10.78125,watch_1
13066614021157,1.9716859,-1.3124632,-2.1278176,10.850181,0.22052218,-2.6381721,-8.418751,33.768753,10.78125,watch_1
13066634227459,1.9716859,-1.3124632,-2.1278176,10.850181,0.22052218,-2.6381721,-11.25,34.5,6.3187504,watch_1
13066644227407,1.9716859,-1.3124632,-2.1278176,10.850181,0.22052218,-2.6381721,-11.19375,33.225002,0.61875004,watch_1
13066638056938,1.6701902,3.2721848,4.0217366,10.555743,-0.027488915,-1.9698862,-11.19375,33.225002,0.61875004,watch_1
13066633094178,1.6701902,3.2721848,4.0217366,10.555743,-0.027488915,-1.9698862,-11.19375,33.225002,0.61875004,watch_1
13066654227355,1.6701902,3.2721848,4.0217366,10.555743,-0.027488915,-1.9698862,-9.900001,34.55625,-1.2375001,watch_1
13066664227303,1.6701902,3.2721848,4.0217366,10.555743,-0.027488915,-1.9698862,-14.156251,31.35,-2.4375,watch_1
13066657130949,1.8951155,7.3782687,7.984251,10.555743,-0.027488915,-1.9698862,-14.156251,31.35,-2.4375,watch_1
13066652168188,1.8951155,7.3782687,7.984251,7.29006,-0.2583958,-1.2881612,-14.156251,31.35,-2.4375,watch_1
13066674227251,1.8951155,7.3782687,7.984251,7.29006,-0.2583958,-1.2881612,-10.950001,32.23125,-4.18125,watch_1
13066684227199,1.8951155,7.3782687,7.984251,7.29006,-0.2583958,-1.2881612,-11.00625,31.800001,-4.14375,watch_1
13066676203917,2.0482562,3.525824,6.213562,7.29006,-0.2583958,-1.2881612,-11.00625,31.800001,-4.14375,watch_1
13066671241157,2.0482562,3.525824,6.213562,2.173457,-0.35246897,-0.6101012,-11.00625,31.800001,-4.14375,watch_1
13066694227147,2.0482562,3.525824,6.213562,2.173457,-0.35246897,-0.6101012,-12.187501,31.44375,-1.35,watch_1
13066704227094,2.0482562,3.525824,6.213562,2.173457,-0.35246897,-0.6101012,-12.075001,32.775,-3.2062502,watch_1
13066690315167,1.8376877,-1.867598,2.1936202,-1.6603304,-0.018936807,0.32207847,-12.075001,32.775,-3.2062502,watch_1
13066695277928,1.8376877,-1.867598,2.1936202,-1.6603304,-0.018936807,0.32207847,-12.075001,32.775,-3.2062502,watch_1
13066714227042,1.8376877,-1.867598,2.1936202,-1.6603304,-0.018936807,0.32207847,-10.89375,35.15625,-2.4375,watch_1
13066714350949,1.7659031,-0.47018966,1.5284154,-2.729344,0.37934703,1.4729477,-10.931251,33.6375,-3.7500002,watch_1
13066709388188,1.7659031,-0.47018966,1.5284154,-2.729344,0.37934703,1.4729477,-10.931251,33.6375,-3.7500002,watch_1
13066724226990,1.7659031,-0.47018966,1.5284154,-2.729344,0.37934703,1.4729477,-10.931251,33.6375,-3.7500002,watch_1
13066734226938,1.7659031,-0.47018966,1.5284154,-2.729344,0.37934703,1.4729477,-9.8625,34.8375,-0.975,watch_1
13066733424959,1.7850457,1.8987048,3.313461,-3.04455,0.57848895,2.4149013,-9.8625,34.8375,-0.975,watch_1
13066728462199,1.7850457,1.8987048,3.313461,-3.04455,0.57848895,2.4149013,-9.8625,34.8375,-0.975,watch_1
13066744226886,1.7850457,1.8987048,3.313461,-3.04455,0.57848895,2.4149013,-10.368751,34.2,-0.975,watch_1
13066754226834,1.7850457,1.8987048,3.313461,-3.04455,0.57848895,2.4149013,-9.50625,34.818752,2.11875,watch_1
13066747535167,1.7850457,1.8987048,3.313461,-4.2528405,0.55894125,3.0135486,-6.7500005,34.987503,4.3125,watch_1
13066764226782,1.0097711,-0.86261255,3.5048869,-4.2528405,0.55894125,3.0135486,-6.7500005,34.987503,4.3125,watch_1
13066752497928,1.0097711,-0.86261255,3.5048869,-4.2528405,0.55894125,3.0135486,-6.7500005,34.987503,4.3125,watch_1
13066774226730,1.0097711,-0.86261255,3.5048869,-4.2528405,0.55894125,3.0135486,-4.4437504,36.99375,4.0875,watch_1
13066766609178,-0.18664017,-9.572487,2.2414765,-5.9595966,0.26572618,3.3592982,-4.4437504,36.99375,4.0875,watch_1
13066771571938,-0.18664017,-9.572487,2.2414765,-5.9595966,0.26572618,3.3592982,-4.4437504,36.99375,4.0875,watch_1
13066784226678,-0.18664017,-9.572487,2.2414765,-5.9595966,0.26572618,3.3592982,-5.625,32.34375,8.775001,watch_1
13066794226626,-0.18664017,-9.572487,2.2414765,-5.9595966,0.26572618,3.3592982,-2.8312502,35.79375,10.05,watch_1
13066790644959,0.5982057,-20.115263,-0.35234314,-5.9595966,0.26572618,3.3592982,-2.8312502,35.79375,10.05,watch_1
13066785682199,0.5982057,-20.115263,-0.35234314,-8.139162,0.0971275,3.003775,-2.8312502,35.79375,10.05,watch_1
13066804226574,0.5982057,-20.115263,-0.35234314,-8.139162,0.0971275,3.003775,-2.6437502,36.7125,14.062501,watch_1
13066814226522,0.5982057,-20.115263,-0.35234314,-8.139162,0.0971275,3.003775,-2.30625,32.60625,16.5375,watch_1
13066809687928,3.9481573,-16.597815,-4.8269215,-8.139162,0.0971275,3.003775,-2.30625,32.60625,16.5375,watch_1
13066804725167,3.9481573,-16.597815,-4.8269215,-10.608277,-0.424551,2.3232715,-2.30625,32.60625,16.5375,watch_1
13066824226469,3.9481573,-16.597815,-4.8269215,-10.608277,-0.424551,2.3232715,2.7562501,29.831251,24.656252,watch_1
13066834226417,3.9481573,-16.597815,-4.8269215,-10.608277,-0.424551,2.3232715,0.61875004,28.7625,28.575,watch_1
13066828761938,0.8470592,-3.2793634,-9.765707,-11.955846,-0.6713404,2.0434954,0.61875004,28.7625,28.575,watch_1
13066823799178,0.8470592,-3.2793634,-9.765707,-11.955846,-0.6713404,2.0434954,0.61875004,28.7625,28.575,watch_1
13066844226365,0.8470592,-3.2793634,-9.765707,-11.955846,-0.6713404,2.0434954,1.6125001,23.90625,30.187502,watch_1
13066854226313,0.8470592,-3.2793634,-9.765707,-11.955846,-0.6713404,2.0434954,1.8000001,21.0375,32.9625,watch_1
13066847834959,-8.025527,-13.984852,-25.161129,-11.955846,-0.6713404,2.0434954,1.8000001,21.0375,32.9625,watch_1
13066842872199,-8.025527,-13.984852,-25.161129,-11.280229,0.06291907,0.67760175,0.39375,20.25,34.912502,watch_1
13066864226261,-8.025527,-13.984852,-25.161129,-11.280229,0.06291907,0.67760175,0.39375,20.25,34.912502,watch_1
13066874226209,-8.025527,-13.984852,-25.161129,-11.280229,0.06291907,0.67760175,2.86875,13.05,41.71875,watch_1
13066861946157,3.129812,-29.160133,-25.984259,-4.59859,0.6334668,0.20112723,2.86875,13.05,41.71875,watch_1
13066866908917,3.129812,-29.160133,-25.984259,-4.59859,0.6334668,0.20112723,2.86875,13.05,41.71875,watch_1
13066884226157,3.129812,-29.160133,-25.984259,-4.59859,0.6334668,0.20112723,0.69375,17.1,37.725002,watch_1
13066894226105,3.129812,-29.160133,-25.984259,-4.59859,0.6334668,0.20112723,0.95625,19.575,36.506252,watch_1
13066885981938,3.9960139,-18.536001,-12.775878,-4.59859,0.6334668,0.20112723,0.95625,19.575,36.506252,watch_1
13066881019178,3.9960139,-18.536001,-12.775878,3.7433794,1.0219768,-0.53313226,0.95625,19.575,36.506252,watch_1
13066904226053,3.9960139,-18.536001,-12.775878,3.7433794,1.0219768,-0.53313226,1.0125,19.81875,38.081253,watch_1
13066914226001,3.9960139,-18.536001,-12.775878,3.7433794,1.0219768,-0.53313226,-0.28125,20.7,35.8125,watch_1
13066905055949,-0.023928227,-12.9750805,-5.9563336,3.7433794,1.0219768,-0.53313226,-0.28125,20.7,35.8125,watch_1
13066900093188,-0.023928227,-12.9750805,-5.9563336,5.7885547,1.3555089,-1.7609705,-0.28125,20.7,35.8125,watch_1
13066924225949,-0.023928227,-12.9750805,-5.9563336,5.7885547,1.3555089,-1.7609705,-0.88125,23.79375,32.9625,watch_1
13066934225897,-0.023928227,-12.9750805,-5.9563336,5.7885547,1.3555089,-1.7609705,-2.30625,23.681252,29.75625,watch_1
13066924128917,2.3018954,-12.017952,-4.391428,5.7885547,1.3555089,-1.7609705,-2.30625,23.681252,29.75625,watch_1
13066919166157,2.3018954,-12.017952,-4.391428,5.5148873,1.0378592,-2.5343254,-2.30625,23.681252,29.75625,watch_1
13066944225844,2.3018954,-12.017952,-4.391428,5.5148873,1.0378592,-2.5343254,-3.525,28.125002,26.2875,watch_1
13066943202928,2.8905299,-8.749356,-4.9417768,5.5148873,1.0378592,-2.5343254,-3.525,28.125002,26.2875,watch_1
13066938240167,2.8905299,-8.749356,-4.9417768,6.51304,0.8497129,-2.8483098,-3.525,28.125002,26.2875,watch_1
13066954225792,2.8905299,-8.749356,-4.9417768,6.51304,0.8497129,-2.8483098,-6.5625005,27.91875,24.206251,watch_1
13066964225740,2.8905299,-8.749356,-4.9417768,6.51304,0.8497129,-2.8483098,-6.01875,29.00625,23.1375,watch_1
13066957313188,2.8905299,-8.749356,-4.9417768,8.410386,0.7043271,-2.9497132,-6.01875,29.00625,23.1375,watch_1
13066974225688,2.2875385,-5.2606206,-4.8843493,8.410386,0.7043271,-2.9497132,-8.6625,30.018751,19.5375,watch_1
13066962275949,2.2875385,-5.2606206,-4.8843493,8.410386,0.7043271,-2.9497132,-8.6625,30.018751,19.5375,watch_1
13066984225636,2.2875385,-5.2606206,-4.8843493,8.410386,0.7043271,-2.9497132,-5.9812503,30.093752,19.275002,watch_1
13066981349959,1.5266209,-2.015953,-1.3669,10.007187,0.41722065,-2.775006,-5.9812503,30.093752,19.275002,watch_1
13066976387199,1.5266209,-2.015953,-1.3669,10.007187,0.41722065,-2.775006,-5.9812503,30.093752,19.275002,watch_1
13066994225584,1.5266209,-2.015953,-1.3669,10.007187,0.41722065,-2.775006,-8.212501,26.306252,17.493752,watch_1
