# Session ID: 20250816_091746
# Start Time: 1755328666595
# Device ID: watch_1
# Sample Count: 1243
# Generated by Watch IMU Recorder
timestamp,accel_x,accel_y,accel_z,gyro_x,gyro_y,gyro_z,mag_x,mag_y,mag_z,watch_name
13734026666272,-0.57906306,4.104887,9.113664,2.7036874,-0.48441577,0.8535308,-15.76875,28.143751,-14.3625,watch_1
13734045740282,-0.56470615,4.1144586,9.12802,2.7036874,-0.48441577,0.8535308,-15.76875,28.143751,-14.3625,watch_1
13734064813303,-0.6939186,4.1001015,9.276375,2.7036874,-0.48441577,0.8535308,-15.76875,28.143751,-14.3625,watch_1
13734059850543,-0.6939186,4.1001015,9.276375,-0.012217295,-0.08124501,0.014202606,-15.76875,28.143751,-14.3625,watch_1
13734083887261,-0.71306115,3.6933217,9.333803,-0.012217295,-0.08124501,0.014202606,-15.76875,28.143751,-14.3625,watch_1
13734078924501,-0.71306115,3.6933217,9.333803,-0.017104214,-0.10690133,0.014202606,-15.76875,28.143751,-14.3625,watch_1
13734100980803,-0.71306115,3.6933217,9.333803,-0.017104214,-0.10690133,0.014202606,9.900001,-13.312501,-33.375,watch_1
13734110980751,-0.71306115,3.6933217,9.333803,-0.017104214,-0.10690133,0.014202606,9.150001,-13.106251,-34.93125,watch_1
13734097997522,-0.55513483,3.7411783,9.195019,0.017104214,-0.108123064,-0.004123337,9.150001,-13.106251,-34.93125,watch_1
13734102960282,-0.55513483,3.7411783,9.195019,0.017104214,-0.108123064,-0.004123337,9.150001,-13.106251,-34.93125,watch_1
13734120980699,-0.55513483,3.7411783,9.195019,0.017104214,-0.108123064,-0.004123337,8.7375,-14.475,-32.8125,watch_1
13734130980647,-0.55513483,3.7411783,9.195019,0.017104214,-0.108123064,-0.004123337,9.75,-12.8625,-35.60625,watch_1
13734122034293,-0.42592242,4.004389,9.104092,0.017104214,-0.108123064,-0.004123337,9.75,-12.8625,-35.60625,watch_1
13734117071532,-0.42592242,4.004389,9.104092,0.021991132,-0.103236146,-0.02611447,9.75,-12.8625,-35.60625,watch_1
13734140980595,-0.42592242,4.004389,9.104092,0.021991132,-0.103236146,-0.02611447,8.56875,-12.731251,-35.60625,watch_1
13734141107261,-0.4546363,4.0091743,9.108877,0.021991132,-0.103236146,-0.02611447,8.56875,-12.731251,-35.60625,watch_1
13734136144501,-0.4546363,4.0091743,9.108877,0.0073303776,-0.09957096,-0.037110034,8.56875,-12.731251,-35.60625,watch_1
13734150980543,-0.4546363,4.0091743,9.108877,0.0073303776,-0.09957096,-0.037110034,8.71875,-14.137501,-35.456253,watch_1
13734160980491,-0.4546363,4.0091743,9.108877,0.0073303776,-0.09957096,-0.037110034,9.675,-12.3,-35.8125,watch_1
13734160181272,-0.52163535,3.9852462,9.3816595,-0.008552107,-0.09590577,-0.05299252,9.675,-12.3,-35.8125,watch_1
13734155218511,-0.52163535,3.9852462,9.3816595,-0.008552107,-0.09590577,-0.05299252,9.675,-12.3,-35.8125,watch_1
13734170980438,-0.52163535,3.9852462,9.3816595,-0.008552107,-0.09590577,-0.05299252,8.493751,-15.01875,-34.96875,watch_1
13734180980386,-0.52163535,3.9852462,9.3816595,-0.008552107,-0.09590577,-0.05299252,8.981251,-11.3625,-38.025,watch_1
13734179254293,-0.67477596,3.9230328,9.707084,-0.008552107,-0.09590577,-0.05299252,8.981251,-11.3625,-38.025,watch_1
13734174291532,-0.67477596,3.9230328,9.707084,-0.07574723,-0.115453444,-0.05665771,8.981251,-11.3625,-38.025,watch_1
13734190980334,-0.67477596,3.9230328,9.707084,-0.07574723,-0.115453444,-0.05665771,9.0,-12.975,-35.100002,watch_1
13734200980282,-0.67477596,3.9230328,9.707084,-0.07574723,-0.115453444,-0.05665771,10.14375,-12.1125,-35.643753,watch_1
13734198297261,-0.6364908,3.9661036,9.769297,-0.07574723,-0.115453444,-0.05665771,10.14375,-12.1125,-35.643753,watch_1
13734193334501,-0.6364908,3.9661036,9.769297,-0.21258095,-0.17898338,-0.043218683,10.14375,-12.1125,-35.643753,watch_1
13734210980230,-0.6364908,3.9661036,9.769297,-0.21258095,-0.17898338,-0.043218683,9.225,-13.481251,-36.037502,watch_1
13734220980178,-0.6364908,3.9661036,9.769297,-0.21258095,-0.17898338,-0.043218683,10.875,-15.000001,-34.987503,watch_1
13734217370282,-0.5072784,3.8991046,9.630513,-0.3274235,-0.2547306,0.00320704,10.875,-15.000001,-34.987503,watch_1
13734212407522,-0.5072784,3.8991046,9.630513,-0.3274235,-0.2547306,0.00320704,10.875,-15.000001,-34.987503,watch_1
13734230980126,-0.5072784,3.8991046,9.630513,-0.3274235,-0.2547306,0.00320704,8.400001,-15.58125,-35.925003,watch_1
13734240980074,-0.5072784,3.8991046,9.630513,-0.3274235,-0.2547306,0.00320704,8.043751,-15.093751,-34.575,watch_1
13734236444293,-0.59342,3.7459638,9.855438,-0.38728827,-0.32559094,0.054519683,8.043751,-15.093751,-34.575,watch_1
13734231481532,-0.59342,3.7459638,9.855438,-0.38728827,-0.32559094,0.054519683,8.043751,-15.093751,-34.575,watch_1
13734250980022,-0.59342,3.7459638,9.855438,-0.38728827,-0.32559094,0.054519683,9.76875,-12.39375,-37.6875,watch_1
13734260979970,-0.59342,3.7459638,9.855438,-0.38728827,-0.32559094,0.054519683,9.3,-11.325001,-37.40625,watch_1
13734255517261,-0.72263247,3.3343983,10.247861,-0.45692685,-0.42088583,0.09728022,9.3,-11.325001,-37.40625,watch_1
13734250554501,-0.72263247,3.3343983,10.247861,-0.45692685,-0.42088583,0.09728022,9.3,-11.325001,-37.40625,watch_1
13734270979918,-0.72263247,3.3343983,10.247861,-0.45692685,-0.42088583,0.09728022,8.6625,-11.700001,-36.7125,watch_1
13734280979866,-0.72263247,3.3343983,10.247861,-0.45692685,-0.42088583,0.09728022,8.325001,-12.0375,-36.862503,watch_1
13734274591272,-0.75613195,2.7888348,10.468,-0.5998692,-0.560163,0.11560616,8.325001,-12.0375,-36.862503,watch_1
13734269628511,-0.75613195,2.7888348,10.468,-0.5998692,-0.560163,0.11560616,8.325001,-12.0375,-36.862503,watch_1
13734290979813,-0.75613195,2.7888348,10.468,-0.5998692,-0.560163,0.11560616,8.137501,-12.468751,-36.99375,watch_1
13734300979761,-0.75613195,2.7888348,10.468,-0.5998692,-0.560163,0.11560616,9.243751,-10.5,-36.91875,watch_1
13734293664293,-0.5168497,2.4681966,10.472787,-0.7208204,-0.7348703,0.1461494,9.243751,-10.5,-36.91875,watch_1
13734288701532,-0.5168497,2.4681966,10.472787,-0.7208204,-0.7348703,0.1461494,9.243751,-10.5,-36.91875,watch_1
13734310979709,-0.5168497,2.4681966,10.472787,-0.7208204,-0.7348703,0.1461494,8.71875,-11.1,-38.081253,watch_1
13734320979657,-0.5168497,2.4681966,10.472787,-0.7208204,-0.7348703,0.1461494,5.34375,-10.725,-37.050003,watch_1
13734312738303,-0.2105684,2.5543382,10.286146,-0.7208204,-0.7348703,0.1461494,5.34375,-10.725,-37.050003,watch_1
13734307775543,-0.2105684,2.5543382,10.286146,-0.88819736,-0.8778127,0.19868377,5.34375,-10.725,-37.050003,watch_1
13734330979605,-0.2105684,2.5543382,10.286146,-0.88819736,-0.8778127,0.19868377,7.6125,-9.0,-37.6875,watch_1
13734340979553,-0.2105684,2.5543382,10.286146,-0.88819736,-0.8778127,0.19868377,7.18125,-10.181251,-37.912502,watch_1
13734331811272,0.05742774,3.3487554,9.338589,-0.88819736,-0.8778127,0.19868377,7.18125,-10.181251,-37.912502,watch_1
13734326848511,0.05742774,3.3487554,9.338589,-1.1618648,-0.9963204,0.25121814,7.18125,-10.181251,-37.912502,watch_1
13734350979501,0.05742774,3.3487554,9.338589,-1.1618648,-0.9963204,0.25121814,7.5937505,-7.8750005,-37.5,watch_1
13734360979449,0.05742774,3.3487554,9.338589,-1.1618648,-0.9963204,0.25121814,5.0625,-8.887501,-38.41875,watch_1
13734350885282,0.11485548,2.8175488,9.041879,-1.1618648,-0.9963204,0.25121814,5.0625,-8.887501,-38.41875,watch_1
13734345922522,0.11485548,2.8175488,9.041879,-1.4391974,-1.1074978,0.31474808,5.0625,-8.887501,-38.41875,watch_1
13734370979397,0.11485548,2.8175488,9.041879,-1.4391974,-1.1074978,0.31474808,6.8250003,-6.8625,-36.525,watch_1
13734369958303,0.02871387,1.2526426,9.190233,-1.4391974,-1.1074978,0.31474808,6.8250003,-6.8625,-36.525,watch_1
13734364995543,0.02871387,1.2526426,9.190233,-1.7727296,-1.1942407,0.24388777,6.8250003,-6.8625,-36.525,watch_1
13734380979345,0.02871387,1.2526426,9.190233,-1.7727296,-1.1942407,0.24388777,5.26875,-7.18125,-37.8375,watch_1
13734390979293,0.02871387,1.2526426,9.190233,-1.7727296,-1.1942407,0.24388777,4.9125004,-3.2062502,-40.3125,watch_1
13734384069501,0.02871387,1.2526426,9.190233,-1.9474369,-1.3066398,0.11071924,4.9125004,-3.2062502,-40.3125,watch_1
13734400979241,0.02871387,1.2526426,9.190233,-1.9474369,-1.3066398,0.11071924,2.5125,-4.65,-40.0125,watch_1
13734389032261,0.23449662,0.061016977,9.439087,-1.9474369,-1.3066398,0.11071924,2.5125,-4.65,-40.0125,watch_1
13734410979188,0.23449662,0.061016977,9.439087,-1.9474369,-1.3066398,0.11071924,0.99375004,-3.43125,-40.443752,watch_1
13734408075282,0.9092726,-0.17347965,9.151948,-1.9474369,-1.3066398,0.11071924,0.99375004,-3.43125,-40.443752,watch_1
13734403112522,0.9092726,-0.17347965,9.151948,-1.7324125,-1.4715732,0.08628465,3.15,-1.2750001,-41.86875,watch_1
13734420979136,0.9092726,-0.17347965,9.151948,-1.7324125,-1.4715732,0.08628465,3.15,-1.2750001,-41.86875,watch_1
13734430979084,0.9092726,-0.17347965,9.151948,-1.7324125,-1.4715732,0.08628465,1.81875,-1.81875,-38.625,watch_1
13734427148303,1.8041883,0.01794617,9.491729,-1.7324125,-1.4715732,0.08628465,1.81875,-1.81875,-38.625,watch_1
13734422185543,1.8041883,0.01794617,9.491729,-1.1374302,-1.5913028,0.10949751,1.81875,-1.81875,-38.625,watch_1
13734440979032,1.8041883,0.01794617,9.491729,-1.1374302,-1.5913028,0.10949751,-0.22500001,-2.625,-39.35625,watch_1
13734450978980,1.8041883,0.01794617,9.491729,-1.1374302,-1.5913028,0.10949751,1.9125,-0.46875003,-40.78125,watch_1
13734446222261,2.115255,0.47258246,10.5685,-0.66095567,-1.7220278,0.1339321,1.9125,-0.46875003,-40.78125,watch_1
13734441259501,2.115255,0.47258246,10.5685,-0.66095567,-1.7220278,0.1339321,-2.4,-2.8500001,-41.625,watch_1
13734460978928,2.115255,0.47258246,10.5685,-0.66095567,-1.7220278,0.1339321,-2.4,-2.8500001,-41.625,watch_1
13734465295282,2.239682,1.2861422,10.79821,-0.66095567,-1.7220278,0.1339321,-1.2,0.61875004,-38.325,watch_1
13734470978876,2.115255,0.47258246,10.5685,-0.66095567,-1.7220278,0.1339321,-1.2,0.61875004,-38.325,watch_1
13734460332522,2.239682,1.2861422,10.79821,-0.7391464,-1.9419391,0.17302746,-1.2,0.61875004,-38.325,watch_1
13734480978824,2.239682,1.2861422,10.79821,-0.7391464,-1.9419391,0.17302746,-2.34375,0.09375,-40.893753,watch_1
13734490978772,2.239682,1.2861422,10.79821,-0.7391464,-1.9419391,0.17302746,-3.35625,3.24375,-41.737503,watch_1
13734484369293,2.737389,1.1521441,10.338788,-1.1716386,-2.2033892,0.23044874,-3.35625,3.24375,-41.737503,watch_1
13734479406532,2.737389,1.1521441,10.338788,-1.1716386,-2.2033892,0.23044874,-3.35625,3.24375,-41.737503,watch_1
13734500978720,2.737389,1.1521441,10.338788,-1.1716386,-2.2033892,0.23044874,-1.48125,3.73125,-40.275,watch_1
13734510978668,2.737389,1.1521441,10.338788,-1.1716386,-2.2033892,0.23044874,-6.24375,3.9562502,-39.975002,watch_1
13734498479501,3.3355947,0.65922266,9.391231,-1.6566653,-2.4318526,0.23533566,-6.24375,3.9562502,-39.975002,watch_1
13734503442261,3.3355947,0.65922266,9.391231,-1.6566653,-2.4318526,0.23533566,-6.24375,3.9562502,-39.975002,watch_1
13734520978616,3.3355947,0.65922266,9.391231,-1.6566653,-2.4318526,0.23533566,-5.5875,4.4625,-40.0875,watch_1
13734530978563,3.3355947,0.65922266,9.391231,-1.6566653,-2.4318526,0.23533566,-8.681251,4.7625003,-39.45,watch_1
13734517553511,3.3355947,0.65922266,9.391231,-1.9339979,-2.6224425,0.25243986,-8.681251,4.7625003,-39.45,watch_1
13734522516272,4.048656,0.54436713,8.209176,-1.9339979,-2.6224425,0.25243986,-8.681251,4.7625003,-39.45,watch_1
13734540978511,4.048656,0.54436713,8.209176,-1.9339979,-2.6224425,0.25243986,-7.2187505,7.0687504,-39.075,watch_1
13734550978459,4.048656,0.54436713,8.209176,-1.9339979,-2.6224425,0.25243986,-11.981251,7.2937503,-39.05625,watch_1
13734541589293,4.7377887,-0.3361916,7.433902,-1.9669846,-2.7885978,0.24633121,-11.981251,7.2937503,-39.05625,watch_1
13734536626532,4.7377887,-0.3361916,7.433902,-1.9669846,-2.7885978,0.24633121,-11.981251,7.2937503,-39.05625,watch_1
13734560978407,4.7377887,-0.3361916,7.433902,-1.9669846,-2.7885978,0.24633121,-11.625,7.4437504,-37.59375,watch_1
13734560663303,5.651847,-1.2119647,6.7112694,-1.9669846,-2.7885978,0.24633121,-11.625,7.4437504,-37.59375,watch_1
13734555700543,5.651847,-1.2119647,6.7112694,-1.7519602,-2.8716753,0.08506292,-11.625,7.4437504,-37.59375,watch_1
13734570978355,5.651847,-1.2119647,6.7112694,-1.7519602,-2.8716753,0.08506292,-13.35,9.806251,-39.16875,watch_1
13734580978303,5.651847,-1.2119647,6.7112694,-1.7519602,-2.8716753,0.08506292,-14.418751,10.762501,-38.23125,watch_1
13734574773511,6.245267,-1.0109676,5.529215,-1.5296054,-2.8069236,-0.012675445,-15.13125,10.63125,-35.98125,watch_1
13734590978251,6.245267,-1.0109676,5.529215,-1.5296054,-2.8069236,-0.012675445,-15.13125,10.63125,-35.98125,watch_1
13734579736272,6.245267,-1.0109676,5.529215,-1.5296054,-2.8069236,-0.012675445,-15.13125,10.63125,-35.98125,watch_1
13734600978199,6.245267,-1.0109676,5.529215,-1.5296054,-2.8069236,-0.012675445,-13.70625,14.212501,-36.45,watch_1
13734598810282,6.7669024,-0.7956135,4.2945185,-1.5296054,-2.8069236,-0.012675445,-13.70625,14.212501,-36.45,watch_1
13734593847522,6.7669024,-0.7956135,4.2945185,-1.8411465,-2.6896377,-0.08720095,-15.0375,11.325001,-35.006252,watch_1
13734610978147,6.7669024,-0.7956135,4.2945185,-1.8411465,-2.6896377,-0.08720095,-15.0375,11.325001,-35.006252,watch_1
13734620978095,6.7669024,-0.7956135,4.2945185,-1.8411465,-2.6896377,-0.08720095,-16.331251,14.231251,-33.2625,watch_1
13734617853303,7.9633136,-0.76689965,2.2797618,-1.8411465,-2.6896377,-0.08720095,-16.331251,14.231251,-33.2625,watch_1
13734612890543,7.9633136,-0.76689965,2.2797618,-2.701244,-2.519817,-0.23258677,-17.625,13.200001,-32.4375,watch_1
13734630978043,7.9633136,-0.76689965,2.2797618,-2.701244,-2.519817,-0.23258677,-17.625,13.200001,-32.4375,watch_1
13734640977991,7.9633136,-0.76689965,2.2797618,-2.701244,-2.519817,-0.23258677,-19.237501,14.6625,-31.7625,watch_1
13734636926272,9.226724,-1.4799608,0.93978107,-3.491703,-2.1875067,-0.43050694,-19.237501,14.6625,-31.7625,watch_1
13734631963511,9.226724,-1.4799608,0.93978107,-3.491703,-2.1875067,-0.43050694,-19.237501,14.6625,-31.7625,watch_1
13734650977938,9.226724,-1.4799608,0.93978107,-3.491703,-2.1875067,-0.43050694,-20.41875,17.306252,-30.2625,watch_1
13734660977886,9.226724,-1.4799608,0.93978107,-3.491703,-2.1875067,-0.43050694,-19.95,17.19375,-29.025002,watch_1
13734651037522,9.226724,-1.4799608,0.93978107,-3.998721,-1.7733405,-0.72372204,-19.95,17.19375,-29.025002,watch_1
13734656000282,10.255638,-2.7912276,0.7579266,-3.998721,-1.7733405,-0.72372204,-20.831251,18.618752,-28.687502,watch_1
13734670977834,10.255638,-2.7912276,0.7579266,-3.998721,-1.7733405,-0.72372204,-20.831251,18.618752,-28.687502,watch_1
13734680977782,10.255638,-2.7912276,0.7579266,-3.998721,-1.7733405,-0.72372204,-21.206251,18.7875,-25.125002,watch_1
13734675073303,10.356136,-3.446861,1.2843475,-4.2027497,-1.368948,-1.0389283,-21.206251,18.7875,-25.125002,watch_1
13734670110543,10.356136,-3.446861,1.2843475,-4.2027497,-1.368948,-1.0389283,-21.206251,18.7875,-25.125002,watch_1
13734690977730,10.356136,-3.446861,1.2843475,-4.2027497,-1.368948,-1.0389283,-22.650002,20.75625,-26.643751,watch_1
13734700977678,10.356136,-3.446861,1.2843475,-4.2027497,-1.368948,-1.0389283,-20.625,21.09375,-23.681252,watch_1
13734694147261,8.743374,-4.7246284,1.3561323,-4.2027497,-1.368948,-1.0389283,-20.625,21.09375,-23.681252,watch_1
13734689184501,8.743374,-4.7246284,1.3561323,-4.065916,-0.9315688,-1.234405,-20.625,21.09375,-23.681252,watch_1
13734710977626,8.743374,-4.7246284,1.3561323,-4.065916,-0.9315688,-1.234405,-22.125,21.0375,-24.281252,watch_1
13734720977574,8.743374,-4.7246284,1.3561323,-4.065916,-0.9315688,-1.234405,-23.362501,23.268751,-23.34375,watch_1
13734708257522,8.652447,-4.959125,0.8775677,-3.446499,-0.43799004,-1.3858994,-23.362501,23.268751,-23.34375,watch_1
13734713220282,8.652447,-4.959125,0.8775677,-3.446499,-0.43799004,-1.3858994,-23.362501,23.268751,-23.34375,watch_1
13734730977522,8.652447,-4.959125,0.8775677,-3.446499,-0.43799004,-1.3858994,-22.650002,22.612501,-21.88125,watch_1
13734740977470,8.652447,-4.959125,0.8775677,-3.446499,-0.43799004,-1.3858994,-21.88125,25.06875,-19.125,watch_1
13734732294293,8.733803,-3.9780676,1.3704891,-2.6682575,0.08613193,-1.4347687,-21.88125,25.06875,-19.125,watch_1
13734727331532,8.733803,-3.9780676,1.3704891,-2.6682575,0.08613193,-1.4347687,-21.88125,25.06875,-19.125,watch_1
13734750977418,8.733803,-3.9780676,1.3704891,-2.6682575,0.08613193,-1.4347687,-23.737501,24.375002,-18.112501,watch_1
13734760977366,8.733803,-3.9780676,1.3704891,-2.6682575,0.08613193,-1.4347687,-25.3875,23.19375,-19.5,watch_1
13734746404501,7.618747,-2.0638096,2.0261226,-2.5411975,0.70799226,-1.4677553,-25.3875,23.19375,-19.5,watch_1
13734751367261,7.618747,-2.0638096,2.0261226,-2.5411975,0.70799226,-1.4677553,-25.3875,23.19375,-19.5,watch_1
13734770977313,7.618747,-2.0638096,2.0261226,-2.5411975,0.70799226,-1.4677553,-23.98125,24.768751,-18.0375,watch_1
13734765478511,6.326623,-1.6043876,3.4522448,-2.9797983,1.310305,-1.3309216,-24.487501,25.687502,-18.46875,watch_1
13734770441272,6.326623,-1.6043876,3.4522448,-2.9797983,1.310305,-1.3309216,-24.487501,25.687502,-18.46875,watch_1
13734780977261,6.326623,-1.6043876,3.4522448,-2.9797983,1.310305,-1.3309216,-24.487501,25.687502,-18.46875,watch_1
13734790977209,6.326623,-1.6043876,3.4522448,-2.9797983,1.310305,-1.3309216,-24.69375,25.237501,-18.300001,watch_1
13734784551532,6.326623,-1.6043876,3.4522448,-2.905273,1.8674136,-1.0096067,-23.1375,25.575,-17.71875,watch_1
13734800977157,6.326623,-1.6043876,3.4522448,-2.905273,1.8674136,-1.0096067,-23.1375,25.575,-17.71875,watch_1
13734789514293,3.8380876,-2.2935205,6.8404818,-2.905273,1.8674136,-1.0096067,-23.1375,25.575,-17.71875,watch_1
13734810977105,3.8380876,-2.2935205,6.8404818,-2.905273,1.8674136,-1.0096067,-24.0,27.150002,-17.25,watch_1
13734808587261,-9.001799,-12.807583,36.966118,-1.8729115,1.635285,-0.6565269,-24.0,27.150002,-17.25,watch_1
13734803624501,-9.001799,-12.807583,36.966118,-1.8729115,1.635285,-0.6565269,-24.0,27.150002,-17.25,watch_1
13734820977053,-9.001799,-12.807583,36.966118,-1.8729115,1.635285,-0.6565269,-23.456251,25.5375,-17.75625,watch_1
13734830977001,-9.001799,-12.807583,36.966118,-1.8729115,1.635285,-0.6565269,-26.1375,24.525002,-19.556252,watch_1
13734827630282,-2.4263222,-9.079565,-0.22791636,-1.8729115,1.635285,-0.6565269,-26.1375,24.525002,-19.556252,watch_1
13734822667522,-2.4263222,-9.079565,-0.22791636,1.5564835,-0.1472184,-0.53313226,-26.1375,24.525002,-19.556252,watch_1
13734840976949,-2.4263222,-9.079565,-0.22791636,1.5564835,-0.1472184,-0.53313226,-23.98125,22.725,-21.31875,watch_1
13734850976897,-2.4263222,-9.079565,-0.22791636,1.5564835,-0.1472184,-0.53313226,-25.5375,23.34375,-20.681252,watch_1
13734841741532,15.864414,13.920246,18.63231,5.0347476,-0.10445788,0.64828026,-25.5375,23.34375,-20.681252,watch_1
13734846704293,15.864414,13.920246,18.63231,5.0347476,-0.10445788,0.64828026,-25.5375,23.34375,-20.681252,watch_1
13734860976845,15.864414,13.920246,18.63231,5.0347476,-0.10445788,0.64828026,-25.1625,21.581251,-21.6375,watch_1
13734870976793,15.864414,13.920246,18.63231,5.0347476,-0.10445788,0.64828026,-26.6625,23.737501,-19.6875,watch_1
13734865777261,-0.02871387,-5.9880385,20.958136,-0.4092794,-1.1954623,-0.69562227,-26.6625,23.737501,-19.6875,watch_1
13734860814501,-0.02871387,-5.9880385,20.958136,-0.4092794,-1.1954623,-0.69562227,-26.6625,23.737501,-19.6875,watch_1
13734880976741,-0.02871387,-5.9880385,20.958136,-0.4092794,-1.1954623,-0.69562227,-25.48125,23.60625,-19.40625,watch_1
13734890976688,-0.02871387,-5.9880385,20.958136,-0.4092794,-1.1954623,-0.69562227,-27.562502,22.66875,-21.150002,watch_1
13734879888511,5.800202,-6.0311093,12.406187,-1.4404192,-1.1148282,-0.4744892,-27.562502,22.66875,-21.150002,watch_1
13734884851272,5.800202,-6.0311093,12.406187,-1.4404192,-1.1148282,-0.4744892,-27.562502,22.66875,-21.150002,watch_1
13734900976636,5.800202,-6.0311093,12.406187,-1.4404192,-1.1148282,-0.4744892,-26.325,24.056252,-19.3875,watch_1
13734910976584,5.800202,-6.0311093,12.406187,-1.4404192,-1.1148282,-0.4744892,-26.400002,23.00625,-16.96875,watch_1
13734903924293,7.728817,4.176672,6.2470617,-1.2302817,-0.5259546,-0.3327686,-26.400002,23.00625,-16.96875,watch_1
13734898961532,7.728817,4.176672,6.2470617,-1.2302817,-0.5259546,-0.3327686,-26.400002,23.00625,-16.96875,watch_1
13734920976532,7.728817,4.176672,6.2470617,-1.2302817,-0.5259546,-0.3327686,-26.587502,24.300001,-18.712502,watch_1
13734930976480,7.728817,4.176672,6.2470617,-1.2302817,-0.5259546,-0.3327686,-26.118752,24.16875,-16.181252,watch_1
13734922998303,7.111469,-0.14955142,5.151149,-1.2302817,-0.5259546,-0.3327686,-26.118752,24.16875,-16.181252,watch_1
13734918035543,7.111469,-0.14955142,5.151149,-1.9388849,-0.7128792,-0.06887501,-26.118752,24.16875,-16.181252,watch_1
13734940976428,7.111469,-0.14955142,5.151149,-1.9388849,-0.7128792,-0.06887501,-26.550001,25.837502,-17.41875,watch_1
13734950976376,7.111469,-0.14955142,5.151149,-1.9388849,-0.7128792,-0.06887501,-28.3875,23.7,-15.525001,watch_1
13734942071272,6.1830535,-4.341777,5.878567,-1.9388849,-0.7128792,-0.06887501,-28.3875,23.7,-15.525001,watch_1
13734937108511,6.1830535,-4.341777,5.878567,-0.7305943,-0.7715222,0.21578798,-28.181252,23.04375,-16.462502,watch_1
13734960976324,6.1830535,-4.341777,5.878567,-0.7305943,-0.7715222,0.21578798,-28.181252,23.04375,-16.462502,watch_1
13734970976272,6.1830535,-4.341777,5.878567,-0.7305943,-0.7715222,0.21578798,-26.175001,25.0125,-17.1375,watch_1
13734961145282,6.991828,-3.6670008,4.950152,-0.7305943,-0.7715222,0.21578798,-26.175001,25.0125,-17.1375,watch_1
13734956182522,6.991828,-3.6670008,4.950152,0.9114103,-0.7947351,0.25243986,-26.175001,25.0125,-17.1375,watch_1
13734980976220,6.991828,-3.6670008,4.950152,0.9114103,-0.7947351,0.25243986,-26.5125,24.675001,-16.425001,watch_1
13734980218303,7.891529,-2.0542383,3.3900316,0.9114103,-0.7947351,0.25243986,-26.5125,24.675001,-16.425001,watch_1
13734975255543,7.891529,-2.0542383,3.3900316,1.5528183,-0.8484912,0.364839,-27.806252,23.98125,-18.09375,watch_1
13734990976168,7.891529,-2.0542383,3.3900316,1.5528183,-0.8484912,0.364839,-27.806252,23.98125,-18.09375,watch_1
13735000976116,7.891529,-2.0542383,3.3900316,1.5528183,-0.8484912,0.364839,-27.581251,23.2875,-17.2875,watch_1
13734994329501,7.891529,-2.0542383,3.3900316,1.1667517,-0.83993906,0.43325585,-27.581251,23.2875,-17.2875,watch_1
13735010976063,7.891529,-2.0542383,3.3900316,1.1667517,-0.83993906,0.43325585,-27.6375,23.8125,-15.88125,watch_1
13734999292261,8.087741,-3.0352955,2.3994029,1.1667517,-0.83993906,0.43325585,-26.550001,22.81875,-15.375001,watch_1
13735020976011,8.087741,-3.0352955,2.3994029,1.1667517,-0.83993906,0.43325585,-26.550001,22.81875,-15.375001,watch_1
13735018365282,7.9633136,-4.226921,1.7198412,1.1667517,-0.83993906,0.43325585,-26.550001,22.81875,-15.375001,watch_1
13735030975959,7.9633136,-4.226921,1.7198412,0.46425724,-0.7629701,0.41126472,-27.656252,23.85,-17.493752,watch_1
13735013402522,7.9633136,-4.226921,1.7198412,0.46425724,-0.7629701,0.41126472,-27.656252,23.85,-17.493752,watch_1
13735040975907,7.9633136,-4.226921,1.7198412,0.46425724,-0.7629701,0.41126472,-27.35625,25.312502,-18.1875,watch_1
13735032445543,7.9633136,-4.226921,1.7198412,-0.1075122,-0.6530144,0.37461284,-27.35625,25.312502,-18.1875,watch_1
13735050975855,7.9633136,-4.226921,1.7198412,-0.1075122,-0.6530144,0.37461284,-27.337502,23.85,-16.143751,watch_1
13735037408303,7.704889,-4.112066,1.0642079,-0.1075122,-0.6530144,0.37461284,-27.337502,23.85,-16.143751,watch_1
13735060975803,7.704889,-4.112066,1.0642079,-0.1075122,-0.6530144,0.37461284,-27.975,24.750002,-15.58125,watch_1
13735056482261,8.063812,-3.4803605,0.05922236,-0.1075122,-0.6530144,0.37461284,-27.975,24.750002,-15.58125,watch_1
13735051519501,8.063812,-3.4803605,0.05922236,-0.6181952,-0.56627166,0.37705627,-26.2875,23.7,-15.281251,watch_1
13735070975751,8.063812,-3.4803605,0.05922236,-0.6181952,-0.56627166,0.37705627,-26.2875,23.7,-15.281251,watch_1
13735080975699,8.063812,-3.4803605,0.05922236,-0.6181952,-0.56627166,0.37705627,-26.550001,23.925001,-14.75625,watch_1
13735075555282,8.796016,-3.9924245,-1.3238292,-0.6181952,-0.56627166,0.37705627,-26.550001,23.925001,-14.75625,watch_1
13735070592522,8.796016,-3.9924245,-1.3238292,-0.8429934,-0.4856375,0.4149299,-26.437502,26.025002,-12.76875,watch_1
13735090975647,8.796016,-3.9924245,-1.3238292,-0.8429934,-0.4856375,0.4149299,-26.437502,26.025002,-12.76875,watch_1
13735100975595,8.796016,-3.9924245,-1.3238292,-0.8429934,-0.4856375,0.4149299,-27.0375,24.993752,-14.625001,watch_1
13735094629293,9.298509,-4.4135613,-2.4484558,-0.7562506,-0.29260424,0.4271472,-27.0375,24.993752,-14.625001,watch_1
13735089666532,9.298509,-4.4135613,-2.4484558,-0.7562506,-0.29260424,0.4271472,-27.0375,24.993752,-14.625001,watch_1
13735110975543,9.298509,-4.4135613,-2.4484558,-0.7562506,-0.29260424,0.4271472,-27.487501,23.19375,-12.618751,watch_1
13735120975491,9.298509,-4.4135613,-2.4484558,-0.7562506,-0.29260424,0.4271472,-25.500002,25.1625,-13.593751,watch_1
13735113702261,9.475577,-4.523631,-4.0181475,-0.7562506,-0.29260424,0.4271472,-25.500002,25.1625,-13.593751,watch_1
13735108739501,9.475577,-4.523631,-4.0181475,-0.8930843,0.03604102,0.3819432,-25.500002,25.1625,-13.593751,watch_1
13735130975438,9.475577,-4.523631,-4.0181475,-0.8930843,0.03604102,0.3819432,-24.2625,25.462502,-12.900001,watch_1
13735140975386,10.174282,-5.1696935,-6.238687,-0.8930843,0.03604102,0.3819432,-25.462502,28.29375,-14.043751,watch_1
13735132776272,10.174282,-5.1696935,-6.238687,-0.8930843,0.03604102,0.3819432,-25.462502,28.29375,-14.043751,watch_1
13735127813511,10.174282,-5.1696935,-6.238687,-1.2522728,0.5345067,0.28176138,-25.462502,28.29375,-14.043751,watch_1
13735150975334,10.174282,-5.1696935,-6.238687,-1.2522728,0.5345067,0.28176138,-24.112501,26.906252,-13.312501,watch_1
13735160975282,10.174282,-5.1696935,-6.238687,-1.2522728,0.5345067,0.28176138,-24.431252,23.400002,-10.106251,watch_1
13735151849293,9.19801,-5.002196,-5.5160546,-1.2522728,0.5345067,0.28176138,-24.431252,23.400002,-10.106251,watch_1
13735146886532,9.19801,-5.002196,-5.5160546,-1.5784746,1.4422518,0.13148865,-24.431252,23.400002,-10.106251,watch_1
13735170975230,9.19801,-5.002196,-5.5160546,-1.5784746,1.4422518,0.13148865,-23.175001,15.88125,-1.95,watch_1
13735165960543,6.5084777,-4.782056,-2.324029,-1.5638138,2.534478,-0.0065667965,-23.175001,15.88125,-1.95,watch_1
13735170923303,6.5084777,-4.782056,-2.324029,-1.5638138,2.534478,-0.0065667965,-23.175001,15.88125,-1.95,watch_1
13735180975178,6.5084777,-4.782056,-2.324029,-1.5638138,2.534478,-0.0065667965,-25.650002,21.46875,-7.2937503,watch_1
13735190975126,6.5084777,-4.782056,-2.324029,-1.5638138,2.534478,-0.0065667965,-24.150002,25.031252,-11.962501,watch_1
13735200975074,6.5084777,-4.782056,-2.324029,-0.8478803,3.3359325,-0.18249585,-24.975,24.54375,-13.762501,watch_1
13735185033511,6.5084777,-4.782056,-2.324029,-0.8478803,3.3359325,-0.18249585,-24.975,24.54375,-13.762501,watch_1
13735189996272,2.7278178,-6.2177496,10.0372925,-0.8478803,3.3359325,-0.18249585,-24.975,24.54375,-13.762501,watch_1
13735210975022,2.7278178,-6.2177496,10.0372925,-0.8478803,3.3359325,-0.18249585,-24.4125,25.275002,-12.01875,watch_1
13735209070282,-11.1936245,-12.38166,19.55594,-0.4251619,1.020755,-0.29000807,-24.4125,25.275002,-12.01875,watch_1
13735204107522,-11.1936245,-12.38166,19.55594,-0.4251619,1.020755,-0.29000807,-24.956251,26.437502,-16.125,watch_1
13735220974970,-11.1936245,-12.38166,19.55594,-0.4251619,1.020755,-0.29000807,-24.956251,26.437502,-16.125,watch_1
13735230974918,-11.1936245,-12.38166,19.55594,-0.4251619,1.020755,-0.29000807,-23.081251,24.393751,-14.981251,watch_1
13735223180543,19.046867,0.31944183,14.631513,2.9883504,0.31337363,-0.21670428,-25.218752,24.13125,-16.21875,watch_1
13735228143303,19.046867,0.31944183,14.631513,2.9883504,0.31337363,-0.21670428,-25.218752,24.13125,-16.21875,watch_1
13735240974866,19.046867,0.31944183,14.631513,2.9883504,0.31337363,-0.21670428,-25.218752,24.13125,-16.21875,watch_1
13735250974813,19.046867,0.31944183,14.631513,2.9883504,0.31337363,-0.21670428,-23.4375,26.60625,-15.243751,watch_1
13735247186272,3.9720855,2.544767,21.039492,0.7037162,-0.4489856,-0.26068655,-23.4375,26.60625,-15.243751,watch_1
13735242223511,3.9720855,2.544767,21.039492,0.7037162,-0.4489856,-0.26068655,-23.4375,26.60625,-15.243751,watch_1
13735260974761,3.9720855,2.544767,21.039492,0.7037162,-0.4489856,-0.26068655,-24.35625,25.237501,-16.237501,watch_1
13735270974709,3.9720855,2.544767,21.039492,0.7037162,-0.4489856,-0.26068655,-24.056252,24.956251,-14.868751,watch_1
13735266260282,1.6175481,-13.463217,10.439287,-0.98837924,-1.1343759,-0.21670428,-24.056252,24.956251,-14.868751,watch_1
13735261297522,1.6175481,-13.463217,10.439287,-0.98837924,-1.1343759,-0.21670428,-24.056252,24.956251,-14.868751,watch_1
13735280974657,1.6175481,-13.463217,10.439287,-0.98837924,-1.1343759,-0.21670428,-26.1,24.150002,-15.450001,watch_1
13735290974605,1.6175481,-13.463217,10.439287,-0.98837924,-1.1343759,-0.21670428,-24.806252,23.4375,-13.781251,watch_1
13735285333303,10.892129,-1.5278172,2.6961129,-0.98837924,-1.1343759,-0.21670428,-24.806252,23.4375,-13.781251,watch_1
13735280370543,10.892129,-1.5278172,2.6961129,1.2095122,-0.80695236,-0.25213444,-27.31875,24.16875,-17.19375,watch_1
13735300974553,10.892129,-1.5278172,2.6961129,1.2095122,-0.80695236,-0.25213444,-27.31875,24.16875,-17.19375,watch_1
13735310974501,10.892129,-1.5278172,2.6961129,1.2095122,-0.80695236,-0.25213444,-24.768751,24.187502,-16.181252,watch_1
13735299444501,10.892129,-1.5278172,2.6961129,1.2938116,-0.69088805,-0.16416991,-24.768751,24.187502,-16.181252,watch_1
13735304407261,7.7623167,1.8077775,7.3716884,1.2938116,-0.69088805,-0.16416991,-24.768751,24.187502,-16.181252,watch_1
13735320974449,7.7623167,1.8077775,7.3716884,1.2938116,-0.69088805,-0.16416991,-25.406252,23.5125,-14.2875,watch_1
13735330974397,7.7623167,1.8077775,7.3716884,1.2938116,-0.69088805,-0.16416991,-25.48125,24.35625,-15.262501,watch_1
13735318517522,5.1828537,-5.662615,8.486744,0.2687805,-0.96699893,0.11438443,-25.48125,24.35625,-15.262501,watch_1
13735323480282,5.1828537,-5.662615,8.486744,0.2687805,-0.96699893,0.11438443,-25.48125,24.35625,-15.262501,watch_1
13735340974345,5.1828537,-5.662615,8.486744,0.2687805,-0.96699893,0.11438443,-26.400002,22.66875,-14.606251,watch_1
13735350974293,5.1828537,-5.662615,8.486744,0.2687805,-0.96699893,0.11438443,-27.31875,23.831251,-15.13125,watch_1
13735337591532,7.1784678,-5.4759746,4.7970114,0.6035344,-1.1991276,0.043524116,-27.31875,23.831251,-15.13125,watch_1
13735342554293,7.1784678,-5.4759746,4.7970114,0.6035344,-1.1991276,0.043524116,-27.31875,23.831251,-15.13125,watch_1
13735360974241,7.1784678,-5.4759746,4.7970114,0.6035344,-1.1991276,0.043524116,-25.968752,24.0375,-16.29375,watch_1
13735370974188,7.1784678,-5.4759746,4.7970114,0.6035344,-1.1991276,0.043524116,-26.175001,23.081251,-12.731251,watch_1
13735361627261,8.130812,-1.1066805,3.815954,0.6035344,-1.1991276,0.043524116,-26.175001,23.081251,-12.731251,watch_1
13735356664501,8.130812,-1.1066805,3.815954,1.0042617,-1.2907573,0.03252855,-26.175001,23.081251,-12.731251,watch_1
13735380974136,8.130812,-1.1066805,3.815954,1.0042617,-1.2907573,0.03252855,-26.75625,23.325,-14.137501,watch_1
13735380701272,7.8436728,-2.705086,2.964109,1.0042617,-1.2907573,0.03252855,-26.75625,23.325,-14.137501,watch_1
13735375738511,7.8436728,-2.705086,2.964109,0.4544834,-1.3787218,0.1583667,-26.75625,23.325,-14.137501,watch_1
13735390974084,7.8436728,-2.705086,2.964109,0.4544834,-1.3787218,0.1583667,-26.6625,24.018751,-12.88125,watch_1
13735400974032,7.8436728,-2.705086,2.964109,0.4544834,-1.3787218,0.1583667,-26.6625,24.018751,-12.88125,watch_1
13735399774293,7.7096744,-4.5619164,1.5762719,0.21746786,-1.3762784,0.19257513,-26.6625,24.018751,-12.88125,watch_1
13735394811532,7.7096744,-4.5619164,1.5762719,0.21746786,-1.3762784,0.19257513,-26.6625,24.018751,-12.88125,watch_1
13735410973980,7.7096744,-4.5619164,1.5762719,0.21746786,-1.3762784,0.19257513,-26.98125,23.85,-13.35,watch_1
13735420973928,7.7096744,-4.5619164,1.5762719,0.21746786,-1.3762784,0.19257513,-26.98125,23.85,-13.35,watch_1
13735418848303,7.82453,-3.6957145,0.61435723,0.21746786,-1.3762784,0.19257513,-26.98125,23.85,-13.35,watch_1
13735430973876,7.82453,-3.6957145,0.61435723,0.3762927,-1.2932007,0.16936226,-25.237501,23.025002,-11.025001,watch_1
13735413885543,7.82453,-3.6957145,0.61435723,0.3762927,-1.2932007,0.16936226,-25.237501,23.025002,-11.025001,watch_1
13735437921272,8.035098,-3.3894334,0.011365907,0.3762927,-1.2932007,0.16936226,-28.800001,20.75625,-12.093751,watch_1
13735440973824,8.035098,-3.3894334,0.011365907,0.3762927,-1.2932007,0.16936226,-28.800001,20.75625,-12.093751,watch_1
13735432958511,8.035098,-3.3894334,0.011365907,0.43127054,-1.1673626,0.17424917,-28.800001,22.7625,-10.96875,watch_1
13735450973772,8.035098,-3.3894334,0.011365907,0.43127054,-1.1673626,0.17424917,-25.612501,24.150002,-13.06875,watch_1
13735460973720,8.035098,-3.3894334,0.011365907,0.43127054,-1.1673626,0.17424917,-25.612501,24.150002,-13.06875,watch_1
13735452031532,8.035098,-3.3894334,0.011365907,0.41538805,-1.0158682,0.19013166,-25.612501,24.150002,-13.06875,watch_1
13735456994293,8.566305,-3.7962132,-0.84047896,0.41538805,-1.0158682,0.19013166,-27.618752,22.96875,-9.4125,watch_1
13735470973668,8.566305,-3.7962132,-0.84047896,0.41538805,-1.0158682,0.19013166,-27.618752,22.96875,-9.4125,watch_1
13735471074501,9.504292,-4.298706,-2.9509485,0.26267186,-0.8155045,0.15347977,-26.718752,22.63125,-8.1,watch_1
13735495111272,10.609776,-4.62413,-5.9324055,-0.24312419,-0.4905244,0.03008509,-25.687502,22.78125,-8.868751,watch_1
13735490973563,10.609776,-4.62413,-5.9324055,-0.24312419,-0.4905244,0.03008509,-26.718752,22.63125,-8.1,watch_1
13735500973511,10.609776,-4.62413,-5.9324055,-0.24312419,-0.4905244,0.03008509,-25.687502,22.78125,-8.868751,watch_1
13735476037261,10.609776,-4.62413,-5.9324055,-0.24312419,-0.4905244,0.03008509,-26.718752,22.63125,-8.1,watch_1
13735514184293,11.131411,-5.2223353,-9.153145,-1.1508693,0.21563527,-0.16539164,-26.475,23.8125,-9.356251,watch_1
13735509221532,11.131411,-5.2223353,-9.153145,-1.1508693,0.21563527,-0.16539164,-26.475,23.8125,-9.356251,watch_1
13735480973616,9.504292,-4.298706,-2.9509485,0.26267186,-0.8155045,0.15347977,-26.718752,22.63125,-8.1,watch_1
13735510973459,10.609776,-4.62413,-5.9324055,-0.24312419,-0.4905244,0.03008509,-26.475,23.8125,-9.356251,watch_1
13735530973355,11.131411,-5.2223353,-9.153145,-1.1508693,0.21563527,-0.16539164,-27.6375,24.093752,-9.65625,watch_1
13735490148511,10.609776,-4.62413,-5.9324055,-0.24312419,-0.4905244,0.03008509,-26.475,23.8125,-9.356251,watch_1
13735520973407,10.609776,-4.62413,-5.9324055,-0.24312419,-0.4905244,0.03008509,-26.475,23.8125,-9.356251,watch_1
13735540973303,10.049855,-6.4761744,-10.555339,-1.1508693,0.21563527,-0.16539164,-26.737501,22.63125,-8.700001,watch_1
13735528295543,10.049855,-6.4761744,-10.555339,-1.9144502,1.4532473,-0.41340274,-26.737501,22.63125,-8.700001,watch_1
13735533258303,10.049855,-6.4761744,-10.555339,-1.9144502,1.4532473,-0.41340274,-26.737501,22.63125,-8.700001,watch_1
13735550973251,10.049855,-6.4761744,-10.555339,-1.9144502,1.4532473,-0.41340274,-26.475,20.8125,-7.3125005,watch_1
13735560973199,10.049855,-6.4761744,-10.555339,-1.9144502,1.4532473,-0.41340274,-26.41875,21.075,-6.3187504,watch_1
13735547368511,8.484949,-4.3178487,-8.909077,-1.9120067,3.0207264,-0.6675225,-26.41875,21.075,-6.3187504,watch_1
13735552331272,8.484949,-4.3178487,-8.909077,-1.9120067,3.0207264,-0.6675225,-26.41875,21.075,-6.3187504,watch_1
13735570973147,8.484949,-4.3178487,-8.909077,-1.9120067,3.0207264,-0.6675225,-26.56875,24.712502,-11.925,watch_1
13735580973095,8.484949,-4.3178487,-8.909077,-1.9120067,3.0207264,-0.6675225,-25.968752,23.212502,-10.837501,watch_1
13735566442522,5.656633,-1.0348958,-2.821736,-0.93584484,4.3621855,-0.75670874,-25.968752,23.212502,-10.837501,watch_1
13735571405282,5.656633,-1.0348958,-2.821736,-0.93584484,4.3621855,-0.75670874,-25.968752,23.212502,-10.837501,watch_1
13735590973043,5.656633,-1.0348958,-2.821736,-0.93584484,4.3621855,-0.75670874,-26.19375,24.225,-13.293751,watch_1
13735590478303,-13.117454,-9.519845,37.60261,0.13316852,3.2833982,-0.79458237,-26.19375,24.225,-13.293751,watch_1
13735585515543,-13.117454,-9.519845,37.60261,0.13316852,3.2833982,-0.79458237,-26.625002,22.087502,-15.31875,watch_1
13735600972991,-13.117454,-9.519845,37.60261,0.13316852,3.2833982,-0.79458237,-26.625002,22.087502,-15.31875,watch_1
13735610972938,-13.117454,-9.519845,37.60261,0.13316852,3.2833982,-0.79458237,-23.56875,21.206251,-14.2875,watch_1
13735609552261,3.6323047,-6.385247,-6.554539,2.6572618,1.382387,-0.619875,-23.56875,21.206251,-14.2875,watch_1
13735604589501,3.6323047,-6.385247,-6.554539,2.6572618,1.382387,-0.619875,-23.8875,10.725,-9.225,watch_1
13735620972886,3.6323047,-6.385247,-6.554539,2.6572618,1.382387,-0.619875,-23.8875,10.725,-9.225,watch_1
13735630972834,3.6323047,-6.385247,-6.554539,2.6572618,1.382387,-0.619875,-27.35625,21.1875,-17.19375,watch_1
13735628625282,14.624932,16.643278,21.537199,1.7226387,-0.7165444,0.11682789,-27.35625,21.1875,-17.19375,watch_1
13735623662522,14.624932,16.643278,21.537199,1.7226387,-0.7165444,0.11682789,-27.35625,21.1875,-17.19375,watch_1
13735640972782,14.624932,16.643278,21.537199,1.7226387,-0.7165444,0.11682789,-26.1375,19.9125,-16.050001,watch_1
13735650972730,14.624932,16.643278,21.537199,1.7226387,-0.7165444,0.11682789,-27.018751,21.35625,-16.0125,watch_1
13735647699293,-3.0005996,-13.410575,11.09492,1.7226387,-0.7165444,0.11682789,-27.018751,21.35625,-16.0125,watch_1
13735642736532,-3.0005996,-13.410575,11.09492,-2.5033238,-1.2760966,-0.037110034,-26.1,22.743752,-15.6,watch_1
13735660972678,-3.0005996,-13.410575,11.09492,-2.5033238,-1.2760966,-0.037110034,-26.1,22.743752,-15.6,watch_1
13735670972626,-3.0005996,-13.410575,11.09492,-2.5033238,-1.2760966,-0.037110034,-25.7625,23.212502,-16.050001,watch_1
13735666772261,11.107483,0.23330021,-2.1661026,-2.5033238,-1.2760966,-0.037110034,-25.7625,23.212502,-16.050001,watch_1
13735661809501,11.107483,0.23330021,-2.1661026,-0.11606431,-0.8692606,0.527329,-25.7625,23.212502,-16.050001,watch_1
13735680972574,11.107483,0.23330021,-2.1661026,-0.11606431,-0.8692606,0.527329,-25.406252,22.087502,-14.00625,watch_1
13735690972522,11.107483,0.23330021,-2.1661026,-0.11606431,-0.8692606,0.527329,-28.368752,20.98125,-13.950001,watch_1
13735685815282,8.04467,3.2434711,6.1657057,-0.11606431,-0.8692606,0.527329,-28.368752,20.98125,-13.950001,watch_1
13735680852522,8.04467,3.2434711,6.1657057,0.98593575,-0.37568185,0.4723512,-28.368752,20.98125,-13.950001,watch_1
13735700972470,8.04467,3.2434711,6.1657057,0.98593575,-0.37568185,0.4723512,-26.625002,22.087502,-15.01875,watch_1
13735710972418,8.04467,3.2434711,6.1657057,0.98593575,-0.37568185,0.4723512,-26.212502,21.5625,-14.493751,watch_1
13735699926532,8.04467,3.2434711,6.1657057,-0.3970621,-0.17898338,0.8828523,-26.212502,21.5625,-14.493751,watch_1
13735704889293,1.7754744,-7.361519,6.7495546,-0.3970621,-0.17898338,0.8828523,-26.343752,23.268751,-15.69375,watch_1
13735720972366,1.7754744,-7.361519,6.7495546,-0.3970621,-0.17898338,0.8828523,-26.343752,23.268751,-15.69375,watch_1
13735730972313,1.7754744,-7.361519,6.7495546,-0.3970621,-0.17898338,0.8828523,-25.35,24.2625,-16.3875,watch_1
13735723962261,7.216753,-4.150351,3.5096726,-0.014660755,-0.24251331,0.6372847,-25.35,24.2625,-16.3875,watch_1
13735718999501,7.216753,-4.150351,3.5096726,-0.014660755,-0.24251331,0.6372847,-25.35,24.2625,-16.3875,watch_1
13735740972261,7.216753,-4.150351,3.5096726,-0.014660755,-0.24251331,0.6372847,-26.00625,23.75625,-16.275002,watch_1
13735750972209,7.216753,-4.150351,3.5096726,-0.13561198,-0.07880156,0.72280574,-25.800001,25.781252,-17.475,watch_1
13735738073511,6.1878395,-2.1451654,5.2755756,-0.13561198,-0.07880156,0.72280574,-25.800001,25.781252,-17.475,watch_1
13735743036272,6.1878395,-2.1451654,5.2755756,-0.13561198,-0.07880156,0.72280574,-25.800001,25.781252,-17.475,watch_1
13735760972157,6.1878395,-2.1451654,5.2755756,-0.13561198,-0.07880156,0.72280574,-24.393751,26.062502,-15.450001,watch_1
13735770972105,6.1878395,-2.1451654,5.2755756,-0.13561198,-0.07880156,0.72280574,-24.54375,25.893751,-15.01875,watch_1
13735762109293,5.063213,-5.21755,4.5003014,-0.13561198,-0.07880156,0.72280574,-24.54375,25.893751,-15.01875,watch_1
13735757146532,5.063213,-5.21755,4.5003014,-1.3060288,-0.04214967,0.7044798,-24.54375,25.893751,-15.01875,watch_1
13735780972053,5.063213,-5.21755,4.5003014,-1.3060288,-0.04214967,0.7044798,-25.44375,26.23125,-16.3125,watch_1
13735790972001,5.063213,-5.21755,4.5003014,-1.3060288,-0.04214967,0.7044798,-22.63125,26.831251,-14.00625,watch_1
13735781183303,6.580262,-5.6482577,3.2799616,-1.2681553,0.033597562,0.71058846,-22.63125,26.831251,-14.00625,watch_1
13735776220543,6.580262,-5.6482577,3.2799616,-1.2681553,0.033597562,0.71058846,-22.63125,26.831251,-14.00625,watch_1
13735800971949,6.580262,-5.6482577,3.2799616,-1.2681553,0.033597562,0.71058846,-23.775002,27.225,-13.012501,watch_1
13735795293511,8.398808,-4.6528435,4.2945185,-0.81122845,0.06291907,0.8022182,-23.775002,27.225,-13.012501,watch_1
13735800256272,8.398808,-4.6528435,4.2945185,-0.81122845,0.06291907,0.8022182,-23.775002,27.225,-13.012501,watch_1
13735810971897,8.398808,-4.6528435,4.2945185,-0.81122845,0.06291907,0.8022182,-23.400002,26.56875,-13.200001,watch_1
13735820971845,8.398808,-4.6528435,4.2945185,-0.81122845,0.06291907,0.8022182,-25.050001,26.493752,-12.937501,watch_1
13735830971793,8.475378,-8.376076,6.5868425,-1.043357,-0.08124501,0.721584,-24.337502,26.306252,-13.575001,watch_1
13735819330282,8.475378,-8.376076,6.5868425,-1.043357,-0.08124501,0.721584,-24.337502,26.306252,-13.575001,watch_1
13735814367522,8.475378,-8.376076,6.5868425,-1.043357,-0.08124501,0.721584,-24.337502,26.306252,-13.575001,watch_1
13735840971741,8.475378,-8.376076,6.5868425,-1.043357,-0.08124501,0.721584,-24.206251,27.31875,-13.218751,watch_1
13735833440543,8.116454,-12.869797,7.7210402,-1.7776165,-0.30726498,0.2988656,-22.237501,27.73125,-14.19375,watch_1
13735850971688,8.116454,-12.869797,7.7210402,-1.7776165,-0.30726498,0.2988656,-22.237501,27.73125,-14.19375,watch_1
13735838403303,8.116454,-12.869797,7.7210402,-1.7776165,-0.30726498,0.2988656,-22.237501,27.73125,-14.19375,watch_1
13735860971636,8.116454,-12.869797,7.7210402,-1.7776165,-0.30726498,0.2988656,-23.268751,27.225,-10.35,watch_1
13735870971584,9.667004,-10.974681,4.639085,-2.7806566,-0.6200278,-0.43050694,-23.268751,25.63125,-8.887501,watch_1
13735852514501,9.667004,-10.974681,4.639085,-2.7806566,-0.6200278,-0.43050694,-23.268751,25.63125,-8.887501,watch_1
13735857477261,9.667004,-10.974681,4.639085,-2.7806566,-0.6200278,-0.43050694,-23.268751,25.63125,-8.887501,watch_1
13735880971532,9.667004,-10.974681,4.639085,-2.7806566,-0.6200278,-0.43050694,-23.75625,27.975,-8.868751,watch_1
13735876550282,11.739188,-7.351948,-0.34277186,-2.8710644,-0.85704327,-0.9118684,-23.75625,27.975,-8.868751,watch_1
13735871587522,11.739188,-7.351948,-0.34277186,-2.8710644,-0.85704327,-0.9118684,-23.75625,27.975,-8.868751,watch_1
13735890971480,11.739188,-7.351948,-0.34277186,-2.8710644,-0.85704327,-0.9118684,-25.125002,26.212502,-7.6875005,watch_1
13735900971428,11.739188,-7.351948,-0.34277186,-2.8710644,-0.85704327,-0.9118684,-24.937502,27.618752,-5.775,watch_1
13735895593303,10.174282,-8.849854,-1.07019,-1.1630865,-0.71043575,-1.0499239,-24.937502,27.618752,-5.775,watch_1
13735890630543,10.174282,-8.849854,-1.07019,-1.1630865,-0.71043575,-1.0499239,-24.937502,27.618752,-5.775,watch_1
13735910971376,10.174282,-8.849854,-1.07019,-1.1630865,-0.71043575,-1.0499239,-25.10625,26.212502,-6.9750004,watch_1
13735920971324,10.174282,-8.849854,-1.07019,-1.1630865,-0.71043575,-1.0499239,-25.800001,25.25625,-6.2250004,watch_1
13735914667261,6.9296145,-8.644072,1.1120644,-1.1630865,-0.71043575,-1.0499239,-25.800001,25.25625,-6.2250004,watch_1
13735909704501,6.9296145,-8.644072,1.1120644,1.1007783,-0.39400777,-1.6216933,-25.800001,25.25625,-6.2250004,watch_1
13735930971272,6.9296145,-8.644072,1.1120644,1.1007783,-0.39400777,-1.6216933,-27.88125,24.31875,-8.118751,watch_1
13735940971220,6.9296145,-8.644072,1.1120644,1.1007783,-0.39400777,-1.6216933,-27.225,23.400002,-7.6687503,watch_1
13735933740282,7.9393854,-2.8390841,1.7150556,1.1007783,-0.39400777,-1.6216933,-27.225,23.400002,-7.6687503,watch_1
13735928777522,7.9393854,-2.8390841,1.7150556,2.277304,-0.42699447,-2.2313364,-29.156252,22.1625,-7.7625003,watch_1
13735950970259,7.9393854,-2.8390841,1.7150556,2.277304,-0.42699447,-2.2313364,-29.156252,22.1625,-7.7625003,watch_1
13735960970207,8.9013,2.204986,2.504687,2.277304,-0.42699447,-2.2313364,-28.48125,21.525002,-7.33125,watch_1
13735952813384,8.9013,2.204986,2.504687,2.277304,-0.42699447,-2.2313364,-28.48125,21.525002,-7.33125,watch_1
13735947851248,8.9013,2.204986,2.504687,2.4459026,-0.29382595,-2.0627377,-28.48125,21.525002,-7.33125,watch_1
13735970970779,8.9013,2.204986,2.504687,2.4459026,-0.29382595,-2.0627377,-31.25625,21.075,-9.056251,watch_1
13735980970727,8.9013,2.204986,2.504687,2.4459026,-0.29382595,-2.0627377,-31.687502,20.0625,-10.743751,watch_1
13735966924217,8.9013,2.204986,2.504687,1.6139047,0.020158539,-1.5398374,-31.687502,20.0625,-10.743751,watch_1
13735971886977,8.054241,2.2384856,2.1361923,1.6139047,0.020158539,-1.5398374,-31.687502,20.0625,-10.743751,watch_1
13735990970675,8.054241,2.2384856,2.1361923,1.6139047,0.020158539,-1.5398374,-30.937502,18.900002,-11.26875,watch_1
13736000970623,6.235696,0.9559326,1.1647065,1.6139047,0.020158539,-1.5398374,-31.087502,18.712502,-10.106251,watch_1
13735990960988,6.235696,0.9559326,1.1647065,1.6139047,0.020158539,-1.5398374,-31.087502,18.712502,-10.106251,watch_1
13735985998227,6.235696,0.9559326,1.1647065,0.20891576,0.59192795,-1.0975713,-32.775,18.35625,-10.125,watch_1
13736010970571,6.235696,0.9559326,1.1647065,0.20891576,0.59192795,-1.0975713,-32.775,18.35625,-10.125,watch_1
13736005071248,6.235696,0.9559326,1.1647065,-0.15393792,1.2956442,-0.43783733,-32.775,18.35625,-10.125,watch_1
13736020970519,4.106084,0.87936234,1.6576279,-0.15393792,1.2956442,-0.43783733,-30.900002,17.75625,-11.025001,watch_1
13736010034009,4.106084,0.87936234,1.6576279,-0.15393792,1.2956442,-0.43783733,-30.900002,17.75625,-11.025001,watch_1
13736030970467,4.106084,0.87936234,1.6576279,-0.15393792,1.2956442,-0.43783733,-30.937502,20.493752,-13.031251,watch_1
13736024145259,4.106084,0.87936234,1.6576279,0.05986475,1.7880012,0.40882125,-30.937502,20.493752,-13.031251,watch_1
13736040970415,4.106084,0.87936234,1.6576279,0.05986475,1.7880012,0.40882125,-31.85625,18.6375,-10.9125,watch_1
13736029108019,3.7854455,3.138187,3.2847474,0.05986475,1.7880012,0.40882125,-31.85625,18.6375,-10.9125,watch_1
13736050970363,3.7854455,3.138187,3.2847474,0.05986475,1.7880012,0.40882125,-31.875002,18.65625,-12.675,watch_1
13736048180988,3.0867412,3.463611,4.08395,-0.27122396,2.2290456,1.3165663,-29.1375,20.75625,-14.156251,watch_1
13736043218227,3.0867412,3.463611,4.08395,-0.27122396,2.2290456,1.3165663,-29.1375,20.75625,-14.156251,watch_1
13736060970311,3.0867412,3.463611,4.08395,-0.27122396,2.2290456,1.3165663,-29.1375,20.75625,-14.156251,watch_1
13736070970259,3.0867412,3.463611,4.08395,-0.27122396,2.2290456,1.3165663,-29.081251,19.9125,-14.212501,watch_1
13736067254009,1.7324036,1.0851451,3.8446677,-0.27122396,2.2290456,1.3165663,-29.081251,19.9125,-14.212501,watch_1
13736062291248,1.7324036,1.0851451,3.8446677,-0.6169734,2.6004515,2.171777,-27.993752,21.6,-13.81875,watch_1
13736080970207,1.7324036,1.0851451,3.8446677,-0.6169734,2.6004515,2.171777,-27.993752,21.6,-13.81875,watch_1
13736090970154,1.7324036,1.0851451,3.8446677,-0.6169734,2.6004515,2.171777,-26.081251,23.025002,-16.21875,watch_1
13736100970102,0.46899325,0.2955136,4.179663,-0.3848448,3.035387,3.0098834,-24.993752,25.050001,-17.8875,watch_1
13736086328019,0.46899325,0.2955136,4.179663,-0.3848448,3.035387,3.0098834,-24.993752,25.050001,-17.8875,watch_1
13736081365259,0.46899325,0.2955136,4.179663,-0.3848448,3.035387,3.0098834,-24.993752,25.050001,-17.8875,watch_1
13736110970050,0.46899325,0.2955136,4.179663,-0.3848448,3.035387,3.0098834,-22.987501,25.743752,-17.868752,watch_1
13736105370988,-0.6939186,0.6879365,5.3186464,-0.252898,3.4666576,3.8259988,-22.987501,25.743752,-17.868752,watch_1
13736100408227,-0.6939186,0.6879365,5.3186464,-0.252898,3.4666576,3.8259988,-22.987501,25.743752,-17.868752,watch_1
13736120969998,-0.6939186,0.6879365,5.3186464,-0.252898,3.4666576,3.8259988,-21.862501,26.306252,-17.79375,watch_1
13736124444009,-1.7228323,-0.12562318,6.8165536,-0.252898,3.4666576,3.8259988,-19.9125,27.843752,-18.300001,watch_1
13736130969946,-1.7228323,-0.12562318,6.8165536,-0.252898,3.4666576,3.8259988,-19.9125,27.843752,-18.300001,watch_1
13736119481248,-1.7228323,-0.12562318,6.8165536,-0.85765415,3.7256644,4.494285,-18.150002,26.550001,-20.15625,watch_1
13736140969894,-1.7228323,-0.12562318,6.8165536,-0.85765415,3.7256644,4.494285,-18.150002,26.550001,-20.15625,watch_1
13736150969842,-1.7228323,-0.12562318,6.8165536,-0.85765415,3.7256644,4.494285,-14.793751,29.812502,-19.368752,watch_1
13736143518019,-2.0434706,0.31465617,6.065207,-0.85765415,3.7256644,4.494285,-14.793751,29.812502,-19.368752,watch_1
13736138555259,-2.0434706,0.31465617,6.065207,-2.398255,3.8270679,5.0709414,-14.793751,29.812502,-19.368752,watch_1
13736160969790,-2.0434706,0.31465617,6.065207,-2.398255,3.8270679,5.0709414,-12.450001,30.656252,-18.6,watch_1
13736170969738,-2.0434706,0.31465617,6.065207,-2.398255,3.8270679,5.0709414,-10.25625,34.2,-18.393751,watch_1
13736162590988,-2.8235307,1.3531412,3.2129626,-2.398255,3.8270679,5.0709414,-10.25625,34.2,-18.393751,watch_1
13736157628227,-2.8235307,1.3531412,3.2129626,-4.521621,3.70856,5.772214,-10.25625,34.2,-18.393751,watch_1
13736180969686,-2.8235307,1.3531412,3.2129626,-4.521621,3.70856,5.772214,-7.6312504,35.90625,-16.518751,watch_1
13736181664998,-5.4795637,-4.298706,4.3758745,-4.521621,3.70856,5.772214,-3.45,36.825,-13.950001,watch_1
13736190969634,-5.4795637,-4.298706,4.3758745,-4.521621,3.70856,5.772214,-3.45,36.825,-13.950001,watch_1
13736176702238,-5.4795637,-4.298706,4.3758745,-7.178883,3.180773,6.368418,-3.45,36.825,-13.950001,watch_1
13736200969582,-5.4795637,-4.298706,4.3758745,-7.178883,3.180773,6.368418,-0.0375,37.3125,-10.125,watch_1
13736210969529,-5.4795637,-4.298706,4.3758745,-11.676069,2.1019857,6.141176,1.3125,39.35625,-5.08125,watch_1
13736195775259,-5.4795637,-4.298706,4.3758745,-11.676069,2.1019857,6.141176,1.3125,39.35625,-5.08125,watch_1
13736200738019,-7.7479596,-11.544173,4.1030927,-11.676069,2.1019857,6.141176,1.3125,39.35625,-5.08125,watch_1
13736220969477,-7.7479596,-11.544173,4.1030927,-11.676069,2.1019857,6.141176,2.98125,40.2,-1.3312501,watch_1
13736219811977,-6.719046,-19.129421,-4.92742,-15.881263,0.6017018,5.452121,2.98125,40.2,-1.3312501,watch_1
13736214849217,-6.719046,-19.129421,-4.92742,-15.881263,0.6017018,5.452121,2.98125,40.2,-1.3312501,watch_1
13736230969425,-6.719046,-19.129421,-4.92742,-15.881263,0.6017018,5.452121,4.5,39.09375,6.5062504,watch_1
13736240969373,-6.719046,-19.129421,-4.92742,-15.881263,0.6017018,5.452121,6.1312504,38.04375,12.01875,watch_1
13736238884998,0.22492532,-30.906893,-13.809578,-16.736473,-0.73609203,4.4160943,6.1312504,38.04375,12.01875,watch_1
13736233922238,0.22492532,-30.906893,-13.809578,-16.736473,-0.73609203,4.4160943,6.1312504,38.04375,12.01875,watch_1
13736250969321,0.22492532,-30.906893,-13.809578,-16.736473,-0.73609203,4.4160943,5.4750004,32.60625,17.71875,watch_1
13736260969269,0.22492532,-30.906893,-13.809578,-16.736473,-0.73609203,4.4160943,8.700001,30.73125,25.10625,watch_1
13736257959009,11.274981,-28.389645,-15.340984,-16.736473,-0.73609203,4.4160943,8.700001,30.73125,25.10625,watch_1
13736252996248,11.274981,-28.389645,-15.340984,-13.913056,-1.60352,2.2707372,8.700001,30.73125,25.10625,watch_1
13736270969217,11.274981,-28.389645,-15.340984,-13.913056,-1.60352,2.2707372,9.50625,26.6625,28.2,watch_1
13736280969165,11.274981,-28.389645,-15.340984,-13.913056,-1.60352,2.2707372,11.25,24.2625,31.837502,watch_1
13736272069217,-2.7900312,-18.34936,-17.279171,-7.7555394,-1.0635155,0.19501857,11.25,24.2625,31.837502,watch_1
13736277031977,-2.7900312,-18.34936,-17.279171,-7.7555394,-1.0635155,0.19501857,11.25,24.2625,31.837502,watch_1
13736290969113,-2.7900312,-18.34936,-17.279171,-7.7555394,-1.0635155,0.19501857,9.39375,20.90625,32.4,watch_1
13736300969061,-2.7900312,-18.34936,-17.279171,-7.7555394,-1.0635155,0.19501857,10.9875,20.38125,33.65625,watch_1
13736296105988,-4.651647,-19.521843,-22.28017,-1.0897827,-0.45265082,-0.92286396,10.9875,20.38125,33.65625,watch_1
13736291143227,-4.651647,-19.521843,-22.28017,-1.0897827,-0.45265082,-0.92286396,10.9875,20.38125,33.65625,watch_1
13736310969009,-4.651647,-19.521843,-22.28017,-1.0897827,-0.45265082,-0.92286396,10.106251,21.65625,34.143753,watch_1
13736320968957,-4.651647,-19.521843,-22.28017,-1.0897827,-0.45265082,-0.92286396,10.6125,22.78125,31.331251,watch_1
13736310186248,5.15414,-20.172691,-18.844076,2.5558581,0.262061,-1.3309216,10.6125,22.78125,31.331251,watch_1
13736315149009,5.15414,-20.172691,-18.844076,2.5558581,0.262061,-1.3309216,10.6125,22.78125,31.331251,watch_1
13736330968904,5.15414,-20.172691,-18.844076,2.5558581,0.262061,-1.3309216,10.556251,21.712502,34.48125,watch_1
13736340968852,5.15414,-20.172691,-18.844076,2.5558581,0.262061,-1.3309216,8.55,25.612501,31.687502,watch_1
13736329259217,1.6175481,-16.813168,-13.307085,2.7207918,1.2699878,-2.621068,8.55,25.612501,31.687502,watch_1
13736334221977,1.6175481,-16.813168,-13.307085,2.7207918,1.2699878,-2.621068,8.55,25.612501,31.687502,watch_1
13736350968800,1.6175481,-16.813168,-13.307085,2.7207918,1.2699878,-2.621068,7.3125005,23.737501,32.756252,watch_1
13736360968748,1.6175481,-16.813168,-13.307085,2.7207918,1.2699878,-2.621068,2.90625,24.91875,29.79375,watch_1
13736353295988,-0.37806597,-14.760126,-11.904891,2.7207918,1.2699878,-2.621068,2.90625,24.91875,29.79375,watch_1
13736348333227,-0.37806597,-14.760126,-11.904891,3.419621,1.7427973,-3.6167777,2.90625,24.91875,29.79375,watch_1
13736370968696,-0.37806597,-14.760126,-11.904891,3.419621,1.7427973,-3.6167777,4.0875,27.6375,29.1,watch_1
13736380968644,-1.1294123,-12.113665,-9.526425,3.419621,1.7427973,-3.6167777,1.1812501,27.31875,26.456251,watch_1
13736372369009,-1.1294123,-12.113665,-9.526425,3.419621,1.7427973,-3.6167777,1.1812501,27.31875,26.456251,watch_1
13736367406248,-1.1294123,-12.113665,-9.526425,5.385384,1.983478,-4.4035716,1.5,28.743752,27.525002,watch_1
13736390968592,-1.1294123,-12.113665,-9.526425,5.385384,1.983478,-4.4035716,1.5,28.743752,27.525002,watch_1
13736400968540,-1.1294123,-12.113665,-9.526425,5.385384,1.983478,-4.4035716,-1.3687501,31.85625,23.550001,watch_1
13736391443019,-2.239682,-8.208578,-3.9415772,7.362142,1.9223914,-5.015658,-1.3687501,31.85625,23.550001,watch_1
13736386480259,-2.239682,-8.208578,-3.9415772,7.362142,1.9223914,-5.015658,-1.3687501,31.85625,23.550001,watch_1
13736410968488,-2.239682,-8.208578,-3.9415772,7.362142,1.9223914,-5.015658,-3.0375001,31.81875,21.900002,watch_1
13736405553227,-2.5316064,-3.097509,-1.1754742,8.416495,1.3994912,-5.4151635,-5.71875,32.53125,18.46875,watch_1
13736420968436,-2.5316064,-3.097509,-1.1754742,8.416495,1.3994912,-5.4151635,-5.71875,32.53125,18.46875,watch_1
13736410515988,-2.5316064,-3.097509,-1.1754742,8.416495,1.3994912,-5.4151635,-5.71875,32.53125,18.46875,watch_1
13736430968384,-2.5316064,-3.097509,-1.1754742,8.416495,1.3994912,-5.4151635,-7.4625,33.35625,15.8625,watch_1
13736424627238,-2.5316064,-3.097509,-1.1754742,8.848988,0.68111426,-5.27833,-9.7875,34.875,10.06875,watch_1
13736440968332,-2.5316064,-3.097509,-1.1754742,8.848988,0.68111426,-5.27833,-9.7875,34.875,10.06875,watch_1
13736429589998,-1.9477576,0.90329057,-0.32362926,8.848988,0.68111426,-5.27833,-9.7875,34.875,10.06875,watch_1
13736450968279,-1.9477576,0.90329057,-0.32362926,8.848988,0.68111426,-5.27833,-12.7875,35.268753,7.0687504,watch_1
13736443700259,-1.9477576,0.90329057,-0.32362926,9.151977,-0.0006108648,-4.577057,-12.7875,34.65,3.35625,watch_1
13736460968227,-1.9477576,0.90329057,-0.32362926,9.151977,-0.0006108648,-4.577057,-12.7875,34.65,3.35625,watch_1
13736448663019,-0.9667004,2.0614166,-0.64905316,9.151977,-0.0006108648,-4.577057,-12.7875,34.65,3.35625,watch_1
13736470968175,-0.9667004,2.0614166,-0.64905316,9.151977,-0.0006108648,-4.577057,-14.6625,34.48125,-0.61875004,watch_1
13736462774217,0.74177504,3.2769706,-1.338186,9.348675,-0.46731156,-3.4237444,-14.6625,34.48125,-0.61875004,watch_1
13736467736977,0.74177504,3.2769706,-1.338186,9.348675,-0.46731156,-3.4237444,-14.6625,34.48125,-0.61875004,watch_1
13736480968123,0.74177504,3.2769706,-1.338186,9.348675,-0.46731156,-3.4237444,-15.76875,34.40625,-3.35625,watch_1
13736490968071,0.74177504,3.2769706,-1.338186,9.348675,-0.46731156,-3.4237444,-16.125,31.743752,-6.1875005,watch_1
13736486809998,2.120041,5.569295,-1.2616158,9.348675,-0.46731156,-3.4237444,-16.125,31.743752,-6.1875005,watch_1
13736481847238,2.120041,5.569295,-1.2616158,9.469625,-0.43432486,-2.0211987,-16.125,31.743752,-6.1875005,watch_1
13736500968019,2.120041,5.569295,-1.2616158,9.469625,-0.43432486,-2.0211987,-18.1875,31.44375,-10.89375,watch_1
13736510967967,2.120041,5.569295,-1.2616158,9.469625,-0.43432486,-2.0211987,-17.71875,29.1375,-12.656251,watch_1
13736505884009,2.0051854,9.096315,1.2843475,8.756136,0.3695732,-0.39263335,-17.71875,29.1375,-12.656251,watch_1
13736500921248,2.0051854,9.096315,1.2843475,8.756136,0.3695732,-0.39263335,-17.71875,29.1375,-12.656251,watch_1
13736520967915,2.0051854,9.096315,1.2843475,8.756136,0.3695732,-0.39263335,-16.800001,27.206251,-15.843751,watch_1
13736530967863,2.0051854,9.096315,1.2843475,8.756136,0.3695732,-0.39263335,-18.300001,26.362501,-18.4125,watch_1
13736524956977,-0.09571291,10.503295,5.404788,5.718916,1.2553271,1.12842,-18.300001,26.362501,-18.4125,watch_1
13736519994217,-0.09571291,10.503295,5.404788,5.718916,1.2553271,1.12842,-18.300001,26.362501,-18.4125,watch_1
13736540967811,-0.09571291,10.503295,5.404788,5.718916,1.2553271,1.12842,-15.337501,29.19375,-20.6625,watch_1
13736550967759,-0.09571291,10.503295,5.404788,5.718916,1.2553271,1.12842,-14.83125,26.85,-20.38125,watch_1
13736539037238,-0.09571291,10.503295,5.404788,1.2449424,1.978591,1.9152138,-14.83125,26.85,-20.38125,watch_1
13736543999998,-0.3397808,6.823134,5.313861,1.2449424,1.978591,1.9152138,-14.83125,26.85,-20.38125,watch_1
13736560967707,-0.3397808,6.823134,5.313861,1.2449424,1.978591,1.9152138,-13.275001,27.487501,-20.85,watch_1
13736570967654,-0.3397808,6.823134,5.313861,1.2449424,1.978591,1.9152138,-10.950001,29.79375,-21.525002,watch_1
13736563074009,0.57906306,2.650051,3.4713874,1.2449424,1.978591,1.9152138,-10.950001,29.79375,-21.525002,watch_1
13736558111248,0.57906306,2.650051,3.4713874,-2.1343615,2.583347,2.7386596,-10.950001,29.79375,-21.525002,watch_1
13736580967602,0.57906306,2.650051,3.4713874,-2.1343615,2.583347,2.7386596,-9.525001,30.225,-19.81875,watch_1
13736590967550,0.57906306,2.650051,3.4713874,-2.1343615,2.583347,2.7386596,-8.15625,33.075,-19.2,watch_1
13736582146977,1.0336994,1.2000005,3.7441692,-4.057364,2.9193227,3.566992,-8.15625,33.075,-19.2,watch_1
13736577184217,1.0336994,1.2000005,3.7441692,-4.057364,2.9193227,3.566992,-8.15625,33.075,-19.2,watch_1
13736600967498,1.0336994,1.2000005,3.7441692,-4.057364,2.9193227,3.566992,-6.7312503,33.506252,-18.075,watch_1
13736610967446,-0.124426775,-1.43689,5.916852,-4.057364,2.9193227,3.566992,-3.6750002,35.11875,-15.1125,watch_1
13736601220988,-0.124426775,-1.43689,5.916852,-4.057364,2.9193227,3.566992,-3.6750002,35.11875,-15.1125,watch_1
13736596258227,-0.124426775,-1.43689,5.916852,-5.290089,2.8667884,4.380664,-3.6750002,35.11875,-15.1125,watch_1
13736620967394,-0.124426775,-1.43689,5.916852,-5.290089,2.8667884,4.380664,-2.98125,35.737503,-13.650001,watch_1
13736620294009,-2.455036,-7.4859457,8.563314,-5.290089,2.8667884,4.380664,-2.98125,35.737503,-13.650001,watch_1
13736615331248,-2.455036,-7.4859457,8.563314,-6.7598295,2.367101,4.671436,-2.98125,35.737503,-13.650001,watch_1
13736630967342,-2.455036,-7.4859457,8.563314,-6.7598295,2.367101,4.671436,0.09375,38.775,-10.96875,watch_1
13736640967290,-2.455036,-7.4859457,8.563314,-6.7598295,2.367101,4.671436,2.6437502,38.643753,-9.65625,watch_1
13736634405259,-2.455036,-7.4859457,8.563314,-8.899078,1.4825689,4.1986265,2.6437502,38.643753,-9.65625,watch_1
13736650967238,-2.455036,-7.4859457,8.563314,-8.899078,1.4825689,4.1986265,1.9875001,40.0125,-5.2125,watch_1
13736639368019,-3.034099,-17.23909,5.132006,-8.899078,1.4825689,4.1986265,3.7500002,39.16875,-1.575,watch_1
13736660967186,-3.034099,-17.23909,5.132006,-8.899078,1.4825689,4.1986265,3.7500002,39.16875,-1.575,watch_1
13736658440988,-1.0289137,-18.875782,-3.132803,-8.899078,1.4825689,4.1986265,3.7500002,39.16875,-1.575,watch_1
13736653478227,-1.0289137,-18.875782,-3.132803,-10.304067,0.30115634,3.9164069,3.7500002,39.16875,-1.575,watch_1
13736670967134,-1.0289137,-18.875782,-3.132803,-10.304067,0.30115634,3.9164069,4.9875,38.662502,3.1125002,watch_1
13736680967082,-1.0289137,-18.875782,-3.132803,-10.304067,0.30115634,3.9164069,9.69375,38.756252,7.1250005,watch_1
13736672551248,-4.1108694,-24.30749,-12.220743,-9.407317,0.19120067,3.3202028,7.4062505,36.393753,10.875,watch_1
13736677514009,-4.1108694,-24.30749,-12.220743,-9.407317,0.19120067,3.3202028,7.4062505,36.393753,10.875,watch_1
13736690967029,-4.1108694,-24.30749,-12.220743,-9.407317,0.19120067,3.3202028,7.4062505,36.393753,10.875,watch_1
13736700966977,-4.1108694,-24.30749,-12.220743,-9.407317,0.19120067,3.3202028,8.400001,36.91875,12.1125,watch_1
13736696588019,-4.0103707,-33.792637,-13.067802,-9.407317,0.19120067,3.3202028,8.400001,36.91875,12.1125,watch_1
13736691625259,-4.0103707,-33.792637,-13.067802,-5.9938054,0.79351336,0.8364266,8.400001,36.91875,12.1125,watch_1
13736710966925,-4.0103707,-33.792637,-13.067802,-5.9938054,0.79351336,0.8364266,8.981251,36.525,14.400001,watch_1
13736720966873,-4.0103707,-33.792637,-13.067802,-5.9938054,0.79351336,0.8364266,7.2375,35.41875,15.468751,watch_1
13736715660988,-0.66999036,-30.404402,-4.6115675,-5.9938054,0.79351336,0.8364266,7.2375,35.41875,15.468751,watch_1
13736710698227,-0.66999036,-30.404402,-4.6115675,-2.2687519,1.0244203,-0.6528617,7.2375,35.41875,15.468751,watch_1
13736730966821,-0.66999036,-30.404402,-4.6115675,-2.2687519,1.0244203,-0.6528617,8.793751,35.90625,15.6,watch_1
13736740966769,-0.66999036,-30.404402,-4.6115675,-2.2687519,1.0244203,-0.6528617,6.5625005,34.29375,17.8125,watch_1
13736729772238,2.4454648,-23.235504,-1.3860425,-0.6365211,0.82161313,-2.04319,6.5625005,34.29375,17.8125,watch_1
13736734734998,2.4454648,-23.235504,-1.3860425,-0.6365211,0.82161313,-2.04319,6.5625005,34.29375,17.8125,watch_1
13736750966717,2.4454648,-23.235504,-1.3860425,-0.6365211,0.82161313,-2.04319,7.05,34.800003,16.95,watch_1
13736760966665,2.4454648,-23.235504,-1.3860425,-0.6365211,0.82161313,-2.04319,4.2937503,35.100002,18.9375,watch_1
13736753778019,2.3306093,-18.234505,-4.195216,0.19181155,0.6090322,-3.5275915,4.2937503,35.100002,18.9375,watch_1
13736748815259,2.3306093,-18.234505,-4.195216,0.19181155,0.6090322,-3.5275915,4.2937503,35.100002,18.9375,watch_1
13736770966613,2.3306093,-18.234505,-4.195216,0.19181155,0.6090322,-3.5275915,2.90625,35.268753,16.44375,watch_1
13736780966561,2.3306093,-18.234505,-4.195216,0.19181155,0.6090322,-3.5275915,0.7875,34.987503,16.21875,watch_1
13736772850988,-0.14356937,-13.401003,-5.200202,1.7446299,0.7519745,-4.307055,0.7875,34.987503,16.21875,watch_1
13736767888227,-0.14356937,-13.401003,-5.200202,1.7446299,0.7519745,-4.307055,0.7875,34.987503,16.21875,watch_1
13736790966509,-0.14356937,-13.401003,-5.200202,1.7446299,0.7519745,-4.307055,-0.99375004,33.61875,16.725,watch_1
13736800966457,-0.14356937,-13.401003,-5.200202,1.7446299,0.7519745,-4.307055,-1.5562501,34.29375,15.150001,watch_1
13736786962238,-0.14356937,-13.401003,-5.200202,3.4941466,0.90224725,-4.610044,-1.5562501,34.29375,15.150001,watch_1
13736791924998,-1.3926228,-8.6345005,-2.7355945,3.4941466,0.90224725,-4.610044,-1.5562501,34.29375,15.150001,watch_1
13736810966404,-1.3926228,-8.6345005,-2.7355945,3.4941466,0.90224725,-4.610044,-2.9250002,37.29375,11.64375,watch_1
13736820966352,-1.3926228,-8.6345005,-2.7355945,3.4941466,0.90224725,-4.610044,-6.8437505,35.662502,11.493751,watch_1
13736810998019,-1.4931214,-3.8344984,0.4325027,3.4941466,0.90224725,-4.610044,-6.8437505,35.662502,11.493751,watch_1
13736806035259,-1.4931214,-3.8344984,0.4325027,5.018865,0.7055488,-4.442667,-6.8437505,35.662502,11.493751,watch_1
13736830966300,-1.4931214,-3.8344984,0.4325027,5.018865,0.7055488,-4.442667,-7.36875,36.9375,7.9687505,watch_1
13736830071977,-1.2586247,-0.12562318,2.169692,5.018865,0.7055488,-4.442667,-7.36875,36.9375,7.9687505,watch_1
13736840966248,-1.2586247,-0.12562318,2.169692,5.8496413,0.30237806,-3.9197667,-8.625,36.675003,6.24375,watch_1
13736825109217,-1.2586247,-0.12562318,2.169692,5.8496413,0.30237806,-3.9197667,-8.625,36.675003,6.24375,watch_1
13736850966196,-1.2586247,-0.12562318,2.169692,5.8496413,0.30237806,-3.9197667,-10.35,36.35625,3.9,watch_1
13736849144998,-0.12921242,2.8845477,1.8634106,5.8496413,0.30237806,-3.9197667,-10.35,36.35625,3.9,watch_1
13736844182238,-0.12921242,2.8845477,1.8634106,5.8203197,0.017715078,-3.2099416,-11.55,36.84375,0.52500004,watch_1
13736860966144,-0.12921242,2.8845477,1.8634106,5.8203197,0.017715078,-3.2099416,-11.55,36.84375,0.52500004,watch_1
13736870966092,-0.12921242,2.8845477,1.8634106,5.8203197,0.017715078,-3.2099416,-13.106251,36.693752,-1.66875,watch_1
13736868219009,0.9379865,3.138187,0.72442704,5.8203197,0.017715078,-3.2099416,-13.106251,36.693752,-1.66875,watch_1
13736863256248,0.9379865,3.138187,0.72442704,5.7030334,-0.018936807,-1.9112432,-13.106251,36.693752,-1.66875,watch_1
13736880966040,0.9379865,3.138187,0.72442704,5.7030334,-0.018936807,-1.9112432,-13.875001,33.787502,-2.34375,watch_1
13736890965988,0.9379865,3.138187,0.72442704,5.7030334,-0.018936807,-1.9112432,-13.687501,36.15,-6.1875005,watch_1
13736887291977,1.8089739,1.4344971,-0.31405798,6.0206833,0.23884813,-0.6039925,-13.687501,36.15,-6.1875005,watch_1
13736882329217,1.8089739,1.4344971,-0.31405798,6.0206833,0.23884813,-0.6039925,-13.687501,36.15,-6.1875005,watch_1
13736900965936,1.8089739,1.4344971,-0.31405798,6.0206833,0.23884813,-0.6039925,-13.2375,34.0125,-8.981251,watch_1
13736910965884,1.8089739,1.4344971,-0.31405798,6.0206833,0.23884813,-0.6039925,-13.687501,34.29375,-11.1,watch_1
13736906365988,2.1391835,3.5210385,1.6576279,6.0206833,0.23884813,-0.6039925,-13.687501,34.29375,-11.1,watch_1
13736901403227,2.1391835,3.5210385,1.6576279,6.7512774,0.82650006,0.6885973,-11.212501,34.40625,-14.75625,watch_1
13736920965832,2.1391835,3.5210385,1.6576279,6.7512774,0.82650006,0.6885973,-11.212501,34.40625,-14.75625,watch_1
13736930965779,2.1391835,3.5210385,1.6576279,6.7512774,0.82650006,0.6885973,-12.093751,33.3375,-15.76875,watch_1
13736925439009,1.1294123,7.6366935,6.8835526,5.389049,1.6047418,1.8125886,-12.093751,33.3375,-15.76875,watch_1
13736920476248,1.1294123,7.6366935,6.8835526,5.389049,1.6047418,1.8125886,-12.093751,33.3375,-15.76875,watch_1
13736940965727,1.1294123,7.6366935,6.8835526,5.389049,1.6047418,1.8125886,-11.306251,31.518751,-18.54375,watch_1
13736950965675,1.1294123,7.6366935,6.8835526,5.389049,1.6047418,1.8125886,-10.1625,32.2125,-17.456251,watch_1
13736944513019,0.062213387,7.732406,8.089535,0.8393282,2.2156065,2.3562582,-10.1625,32.2125,-17.456251,watch_1
13736939550259,0.062213387,7.732406,8.089535,0.8393282,2.2156065,2.3562582,-10.1625,32.2125,-17.456251,watch_1
13736960965623,0.062213387,7.732406,8.089535,0.8393282,2.2156065,2.3562582,-7.0875,35.90625,-19.368752,watch_1
13736970965571,0.062213387,7.732406,8.089535,0.8393282,2.2156065,2.3562582,-6.20625,35.4,-17.04375,watch_1
13736963555988,-0.2727818,1.6546369,5.6967125,-3.6395323,2.1704025,3.1577127,-6.20625,35.4,-17.04375,watch_1
13736958593227,-0.2727818,1.6546369,5.6967125,-3.6395323,2.1704025,3.1577127,-6.20625,35.4,-17.04375,watch_1
13736980965519,-0.2727818,1.6546369,5.6967125,-3.6395323,2.1704025,3.1577127,-3.825,36.206253,-14.3625,watch_1
13736990965467,-0.2727818,1.6546369,5.6967125,-3.6395323,2.1704025,3.1577127,-1.3875,34.59375,-10.293751,watch_1
13736982629009,-0.4833502,-4.308277,5.6536417,-6.0695524,1.8539746,3.8773115,-1.3875,34.59375,-10.293751,watch_1
13736977666248,-0.4833502,-4.308277,5.6536417,-6.0695524,1.8539746,3.8773115,-1.3875,34.59375,-10.293751,watch_1
13737000965415,-0.4833502,-4.308277,5.6536417,-6.0695524,1.8539746,3.8773115,0.45000002,38.925003,-9.356251,watch_1
13737010965363,-0.4833502,-4.308277,5.6536417,-6.0695524,1.8539746,3.8773115,1.81875,38.268753,-3.7500002,watch_1
13736996740259,-0.4833502,-4.308277,5.6536417,-7.555176,1.3591741,4.0129232,1.81875,38.268753,-3.7500002,watch_1
13737001703019,-2.0434706,-12.93201,6.337989,-7.555176,1.3591741,4.0129232,1.81875,38.268753,-3.7500002,watch_1
13737020965311,-2.0434706,-12.93201,6.337989,-7.555176,1.3591741,4.0129232,3.1125002,37.3875,-1.1812501,watch_1
13737030965259,-1.3830515,-19.97648,1.4518452,-7.555176,1.3591741,4.0129232,6.5062504,39.16875,2.0812502,watch_1
13737020775988,-1.3830515,-19.97648,1.4518452,-7.555176,1.3591741,4.0129232,6.5062504,39.16875,2.0812502,watch_1
13737015813227,-1.3830515,-19.97648,1.4518452,-8.918626,0.5772672,3.5169013,6.5062504,39.16875,2.0812502,watch_1
13737040965207,-1.3830515,-19.97648,1.4518452,-8.918626,0.5772672,3.5169013,4.74375,37.443752,5.68125,watch_1
13737039849998,-0.07178468,-20.115263,-4.2191443,-9.821484,0.031154104,2.9976661,4.74375,37.443752,5.68125,watch_1
13737034887238,-0.07178468,-20.115263,-4.2191443,-9.821484,0.031154104,2.9976661,5.2312503,37.29375,8.3625,watch_1
13737050965154,-0.07178468,-20.115263,-4.2191443,-9.821484,0.031154104,2.9976661,5.2312503,37.29375,8.3625,watch_1
13737060965102,-0.07178468,-20.115263,-4.2191443,-9.821484,0.031154104,2.9976661,6.525,37.2,14.325001,watch_1
13737053960259,-0.07178468,-20.115263,-4.2191443,-9.180076,-0.17409647,2.0105088,7.3125005,34.55625,16.425001,watch_1
13737070965050,-1.698904,-15.573687,-10.37827,-9.180076,-0.17409647,2.0105088,7.3125005,34.55625,16.425001,watch_1
13737058923019,-1.698904,-15.573687,-10.37827,-9.180076,-0.17409647,2.0105088,7.3125005,34.55625,16.425001,watch_1
13737080964998,-1.698904,-15.573687,-10.37827,-9.180076,-0.17409647,2.0105088,8.00625,35.193752,17.60625,watch_1
13737077996977,-7.422536,-22.493729,-13.292728,-5.6504993,0.31948227,0.6714931,8.00625,35.193752,17.60625,watch_1
13737073034217,-7.422536,-22.493729,-13.292728,-5.6504993,0.31948227,0.6714931,8.00625,35.193752,17.60625,watch_1
13737090964946,-7.422536,-22.493729,-13.292728,-5.6504993,0.31948227,0.6714931,8.475,30.6375,21.88125,watch_1
13737100964894,-7.422536,-22.493729,-13.292728,-5.6504993,0.31948227,0.6714931,7.4625,32.362503,20.868752,watch_1
13737097069998,0.94277215,-31.136604,-11.220544,-5.6504993,0.31948227,0.6714931,7.4625,32.362503,20.868752,watch_1
13737092107238,0.94277215,-31.136604,-11.220544,-3.0237806,0.7507528,-0.7212786,7.7812505,30.7875,23.53125,watch_1
13737110964842,0.94277215,-31.136604,-11.220544,-3.0237806,0.7507528,-0.7212786,7.7812505,30.7875,23.53125,watch_1
13737120964790,0.94277215,-31.136604,-11.220544,-3.0237806,0.7507528,-0.7212786,6.1687503,32.25,24.806252,watch_1
13737116144009,4.5894337,-23.015364,-5.764908,-0.957836,0.91812974,-1.9918773,6.1687503,32.25,24.806252,watch_1
13737111181248,4.5894337,-23.015364,-5.764908,-0.957836,0.91812974,-1.9918773,6.1687503,32.25,24.806252,watch_1
13737130964738,4.5894337,-23.015364,-5.764908,-0.957836,0.91812974,-1.9918773,3.9562502,31.25625,24.35625,watch_1
13737140964686,4.5894337,-23.015364,-5.764908,-0.957836,0.91812974,-1.9918773,4.9875,31.10625,24.487501,watch_1
13737135216977,1.8041883,-14.779269,-4.874778,-0.957836,0.91812974,-1.9918773,4.9875,31.10625,24.487501,watch_1
13737130254217,1.8041883,-14.779269,-4.874778,0.5876519,1.0244203,-3.2649195,4.9875,31.10625,24.487501,watch_1
13737150964634,1.8041883,-14.779269,-4.874778,0.5876519,1.0244203,-3.2649195,0.8625,30.468752,23.212502,watch_1
13737160964582,1.8041883,-14.779269,-4.874778,0.5876519,1.0244203,-3.2649195,1.8750001,31.44375,23.081251,watch_1
13737154290988,-0.22013968,-10.773684,-4.74078,0.5876519,1.0244203,-3.2649195,1.8750001,31.44375,23.081251,watch_1
13737149328227,-0.22013968,-10.773684,-4.74078,1.5564835,1.0916153,-3.826915,1.8750001,31.44375,23.081251,watch_1
13737170964529,-0.22013968,-10.773684,-4.74078,1.5564835,1.0916153,-3.826915,-0.24375,31.143751,23.8875,watch_1
13737180964477,-0.22013968,-10.773684,-4.74078,1.5564835,1.0916153,-3.826915,-2.4750001,31.781252,20.362501,watch_1
13737173334009,-0.72741807,-9.333204,-2.864807,1.5564835,1.0916153,-3.826915,-2.4750001,31.781252,20.362501,watch_1
13737168371248,-0.72741807,-9.333204,-2.864807,3.00912,1.11605,-3.9380925,-2.4750001,31.781252,20.362501,watch_1
13737190964425,-0.72741807,-9.333204,-2.864807,3.00912,1.11605,-3.9380925,-4.3125,32.98125,19.1625,watch_1
13737200964373,-0.72741807,-9.333204,-2.864807,3.00912,1.11605,-3.9380925,-6.3562503,33.45,18.6,watch_1
13737192406977,-0.67477596,-7.753942,-0.5246264,3.00912,1.11605,-3.9380925,-6.3562503,33.45,18.6,watch_1
13737187444217,-0.67477596,-7.753942,-0.5246264,4.9113526,0.90957767,-3.9869616,-6.3562503,33.45,18.6,watch_1
13737210964321,-0.67477596,-7.753942,-0.5246264,4.9113526,0.90957767,-3.9869616,-6.01875,34.575,14.175,watch_1
13737220964269,-0.67477596,-7.753942,-0.5246264,4.9113526,0.90957767,-3.9869616,-8.043751,34.21875,12.075001,watch_1
13737211480988,-0.8709874,-3.51386,0.8249256,4.9113526,0.90957767,-3.9869616,-8.043751,34.21875,12.075001,watch_1
13737206518227,-0.8709874,-3.51386,0.8249256,6.4079714,0.4721985,-3.7670503,-8.043751,34.21875,12.075001,watch_1
13737230964217,-0.8709874,-3.51386,0.8249256,6.4079714,0.4721985,-3.7670503,-10.275001,34.8375,9.0,watch_1
13737230554009,-0.33020952,0.2955136,1.0642079,7.557619,0.005497783,-3.1390815,-10.275001,34.8375,9.0,watch_1
13737225591248,-0.33020952,0.2955136,1.0642079,7.557619,0.005497783,-3.1390815,-10.5375,33.99375,7.89375,watch_1
13737240964165,-0.33020952,0.2955136,1.0642079,7.557619,0.005497783,-3.1390815,-10.5375,33.99375,7.89375,watch_1
13737250964113,-0.33020952,0.2955136,1.0642079,7.557619,0.005497783,-3.1390815,-12.58125,35.41875,1.40625,watch_1
13737244665259,-0.33020952,0.2955136,1.0642079,8.025541,-0.26572618,-1.9588907,-12.58125,35.41875,1.40625,watch_1
13737260964061,-0.33020952,0.2955136,1.0642079,8.025541,-0.26572618,-1.9588907,-13.762501,36.1875,-1.9875001,watch_1
13737249628019,0.8566305,2.7314072,1.0642079,8.025541,-0.26572618,-1.9588907,-13.762501,36.1875,-1.9875001,watch_1
13737270964009,0.8566305,2.7314072,1.0642079,8.025541,-0.26572618,-1.9588907,-14.437501,35.71875,-3.1875002,watch_1
13737263738227,0.8566305,2.7314072,1.0642079,7.7274394,-0.31093016,-0.696844,-14.437501,35.71875,-3.1875002,watch_1
13737268700988,2.359323,3.1142588,0.9302098,7.7274394,-0.31093016,-0.696844,-14.437501,35.71875,-3.1875002,watch_1
13737280963957,2.359323,3.1142588,0.9302098,7.7274394,-0.31093016,-0.696844,-12.806251,33.45,-6.2625003,watch_1
13737290963904,2.359323,3.1142588,0.9302098,7.7274394,-0.31093016,-0.696844,-13.556251,36.84375,-10.462501,watch_1
13737287774998,3.5509489,2.4059832,1.3369896,7.7274394,-0.31093016,-0.696844,-13.556251,36.84375,-10.462501,watch_1
13737300963852,3.5509489,2.4059832,1.3369896,7.0396056,0.12034036,0.29397866,-13.593751,35.643753,-13.837501,watch_1
13737282812238,3.5509489,2.4059832,1.3369896,7.0396056,0.12034036,0.29397866,-13.593751,35.643753,-13.837501,watch_1
13737310963800,3.5509489,2.4059832,1.3369896,7.0396056,0.12034036,0.29397866,-12.225,33.45,-15.356251,watch_1
13737301885259,2.4789643,4.382455,4.0121655,5.395158,1.0219768,1.286023,-12.225,33.45,-15.356251,watch_1
13737306848019,2.4789643,4.382455,4.0121655,5.395158,1.0219768,1.286023,-12.225,33.45,-15.356251,watch_1
13737320963748,2.4789643,4.382455,4.0121655,5.395158,1.0219768,1.286023,-11.400001,34.125,-15.31875,watch_1
13737330963696,2.4789643,4.382455,4.0121655,5.395158,1.0219768,1.286023,-10.762501,33.5625,-18.112501,watch_1
13737320958227,0.7322037,5.770292,6.376274,2.1074834,1.7330234,2.1106906,-10.762501,33.5625,-18.112501,watch_1
13737325920988,0.7322037,5.770292,6.376274,2.1074834,1.7330234,2.1106906,-10.762501,33.5625,-18.112501,watch_1
13737340963644,0.7322037,5.770292,6.376274,2.1074834,1.7330234,2.1106906,-9.900001,33.412502,-19.143751,watch_1
13737350963592,0.7322037,5.770292,6.376274,2.1074834,1.7330234,2.1106906,-8.981251,33.018753,-15.075001,watch_1
13737344994998,-0.3493521,3.3439696,6.0029936,-1.7996076,1.996917,2.8376195,-8.981251,33.018753,-15.075001,watch_1
13737340032238,-0.3493521,3.3439696,6.0029936,-1.7996076,1.996917,2.8376195,-8.981251,33.018753,-15.075001,watch_1
13737360963540,-0.3493521,3.3439696,6.0029936,-1.7996076,1.996917,2.8376195,-6.7500005,37.3125,-17.2875,watch_1
13737370963488,-0.3493521,3.3439696,6.0029936,-1.7996076,1.996917,2.8376195,-4.6687503,36.825,-14.962501,watch_1
13737359105259,-0.80877405,-1.3316058,5.5866427,-4.7097673,1.8894048,3.4790277,-4.6687503,36.825,-14.962501,watch_1
13737364068019,-0.80877405,-1.3316058,5.5866427,-4.7097673,1.8894048,3.4790277,-4.6687503,36.825,-14.962501,watch_1
13737380963436,-0.80877405,-1.3316058,5.5866427,-4.7097673,1.8894048,3.4790277,-2.8312502,36.7125,-11.681251,watch_1
13737390963384,-0.80877405,-1.3316058,5.5866427,-4.7097673,1.8894048,3.4790277,0.075,39.5625,-8.868751,watch_1
13737383141977,-2.1918256,-9.802198,7.0654073,-6.2100515,1.544877,3.829664,0.075,39.5625,-8.868751,watch_1
13737378179217,-2.1918256,-9.802198,7.0654073,-6.2100515,1.544877,3.829664,0.075,39.5625,-8.868751,watch_1
13737400963332,-2.1918256,-9.802198,7.0654073,-6.2100515,1.544877,3.829664,-0.20625001,39.506252,-7.4437504,watch_1
13737410963279,-2.1918256,-9.802198,7.0654073,-6.2100515,1.544877,3.829664,1.575,38.9625,-4.8562503,watch_1
13737402184998,-2.565106,-19.04328,5.514858,-7.387799,0.99143356,3.52301,1.575,38.9625,-4.8562503,watch_1
13737397222238,-2.565106,-19.04328,5.514858,-7.387799,0.99143356,3.52301,1.575,38.9625,-4.8562503,watch_1
13737420963227,-2.565106,-19.04328,5.514858,-7.387799,0.99143356,3.52301,2.5687501,40.40625,-0.675,watch_1
13737430963175,-2.565106,-19.04328,5.514858,-7.387799,0.99143356,3.52301,2.8312502,38.41875,1.8750001,watch_1
13737421258019,0.6939186,-18.430716,-1.4626129,-8.20758,0.37934703,2.9695663,2.8312502,38.41875,1.8750001,watch_1
13737416295259,0.6939186,-18.430716,-1.4626129,-8.20758,0.37934703,2.9695663,2.8312502,38.41875,1.8750001,watch_1
13737440963123,0.6939186,-18.430716,-1.4626129,-8.20758,0.37934703,2.9695663,4.59375,40.10625,5.4,watch_1
13737440331977,0.1052842,-12.276377,-5.961119,-8.20758,0.37934703,2.9695663,4.59375,40.10625,5.4,watch_1
13737435369217,0.1052842,-12.276377,-5.961119,-7.860608,0.07391464,2.8168502,6.1125,38.04375,11.7375,watch_1
13737460963019,0.1052842,-12.276377,-5.961119,-7.860608,0.07391464,2.8168502,6.1125,38.04375,11.7375,watch_1
13737450963071,0.1052842,-12.276377,-5.961119,-7.860608,0.07391464,2.8168502,6.1125,38.04375,11.7375,watch_1
13737459404998,-5.7140603,-15.573687,-5.075775,-6.579014,0.31337363,1.8113668,6.1125,38.04375,11.7375,watch_1
13737454442238,-5.7140603,-15.573687,-5.075775,-6.579014,0.31337363,1.8113668,7.6875005,35.175003,16.556252,watch_1
13737473516248,-3.5988052,-24.508486,-8.870791,-5.9608183,0.41355544,0.46990773,6.4125004,32.53125,20.00625,watch_1
13737478479009,-3.5988052,-24.508486,-8.870791,-5.9608183,0.41355544,0.46990773,7.6875005,35.175003,16.556252,watch_1
13737490962863,-3.5988052,-24.508486,-8.870791,-5.9608183,0.41355544,0.46990773,6.4125004,32.53125,20.00625,watch_1
13737480962915,-3.5988052,-24.508486,-8.870791,-5.9608183,0.41355544,0.46990773,6.4125004,32.53125,20.00625,watch_1
13737470962967,-3.5988052,-24.508486,-8.870791,-6.579014,0.31337363,1.8113668,7.6875005,35.175003,16.556252,watch_1
13737500962811,-3.5988052,-24.508486,-8.870791,-5.9608183,0.41355544,0.46990773,5.775,30.4125,22.7625,watch_1
13737497551977,3.0580273,-27.73401,-9.909277,-5.9608183,0.41355544,0.46990773,5.775,30.4125,22.7625,watch_1
13737492589217,3.0580273,-27.73401,-9.909277,-4.3982263,0.43799004,-0.44394597,5.775,30.4125,22.7625,watch_1
13737510962759,3.0580273,-27.73401,-9.909277,-4.3982263,0.43799004,-0.44394597,6.58125,29.025002,26.19375,watch_1
13737520962707,3.0580273,-27.73401,-9.909277,-4.3982263,0.43799004,-0.44394597,7.7250004,29.718752,26.681252,watch_1
13737516625988,3.0915267,-22.20659,-7.9854474,-4.3982263,0.43799004,-0.44394597,7.7250004,29.718752,26.681252,watch_1
13737511663227,3.0915267,-22.20659,-7.9854474,-1.644448,0.69455326,-1.6656755,7.7250004,29.718752,26.681252,watch_1
13737530962654,3.0915267,-22.20659,-7.9854474,-1.644448,0.69455326,-1.6656755,6.8812504,29.062502,25.931252,watch_1
13737540962602,3.0915267,-22.20659,-7.9854474,-1.644448,0.69455326,-1.6656755,4.78125,32.100002,23.79375,watch_1
13737530736248,3.0915267,-22.20659,-7.9854474,0.80878496,0.9572251,-2.7615669,4.78125,32.100002,23.79375,watch_1
13737535699009,0.81834537,-15.7076845,-6.0233326,0.80878496,0.9572251,-2.7615669,4.78125,32.100002,23.79375,watch_1
13737550962550,0.81834537,-15.7076845,-6.0233326,0.80878496,0.9572251,-2.7615669,2.86875,32.41875,22.95,watch_1
13737560962498,0.81834537,-15.7076845,-6.0233326,0.80878496,0.9572251,-2.7615669,1.8375001,30.993752,24.150002,watch_1
13737554773019,-0.2440679,-11.769098,-3.7597225,2.5228715,1.0097594,-3.2380414,1.8375001,30.993752,24.150002,watch_1
13737549810259,-0.2440679,-11.769098,-3.7597225,2.5228715,1.0097594,-3.2380414,1.8375001,30.993752,24.150002,watch_1
13737570962446,-0.2440679,-11.769098,-3.7597225,2.5228715,1.0097594,-3.2380414,0.075,33.412502,19.2,watch_1
13737580962394,-0.2440679,-11.769098,-3.7597225,2.5228715,1.0097594,-3.2380414,-1.0500001,32.550003,20.175001,watch_1
13737573845988,-0.38285163,-9.749556,-1.4434702,2.5228715,1.0097594,-3.2380414,-1.0500001,32.550003,20.175001,watch_1
13737568883227,-0.38285163,-9.749556,-1.4434702,3.9144216,0.9279036,-3.4665048,-1.0500001,32.550003,20.175001,watch_1
13737590962342,-0.38285163,-9.749556,-1.4434702,3.9144216,0.9279036,-3.4665048,-3.3937502,33.28125,18.09375,watch_1
13737600962290,-0.38285163,-9.749556,-1.4434702,3.9144216,0.9279036,-3.4665048,-5.9812503,34.537502,16.5,watch_1
13737592919998,-0.3684947,-7.1509504,0.36550367,5.060404,0.6969967,-3.5801258,-5.9812503,34.537502,16.5,watch_1
13737587957238,-0.3684947,-7.1509504,0.36550367,5.060404,0.6969967,-3.5801258,-5.9812503,34.537502,16.5,watch_1
13737610962238,-0.3684947,-7.1509504,0.36550367,5.060404,0.6969967,-3.5801258,-6.20625,35.86875,12.281251,watch_1
13737620962186,-0.3684947,-7.1509504,0.36550367,5.060404,0.6969967,-3.5801258,-6.5062504,34.3875,13.25625,watch_1
13737611963019,-0.31585258,-3.0352955,1.1599208,5.060404,0.6969967,-3.5801258,-6.5062504,34.3875,13.25625,watch_1
13737607000259,-0.31585258,-3.0352955,1.1599208,5.666382,0.32681265,-3.3651013,-6.5062504,34.3875,13.25625,watch_1
13737630962134,-0.31585258,-3.0352955,1.1599208,5.666382,0.32681265,-3.3651013,-7.14375,35.625,11.475,watch_1
13737626073227,-0.31585258,-3.0352955,1.1599208,5.981588,0.005497783,-2.6968153,-10.200001,35.8875,6.8812504,watch_1
13737640962082,-0.31585258,-3.0352955,1.1599208,5.981588,0.005497783,-2.6968153,-10.200001,35.8875,6.8812504,watch_1
13737631035988,0.09092726,0.28115666,0.5282156,5.981588,0.005497783,-2.6968153,-10.200001,35.8875,6.8812504,watch_1
13737650962029,0.09092726,0.28115666,0.5282156,5.981588,0.005497783,-2.6968153,-9.8625,35.30625,3.61875,watch_1
13737645147238,0.09092726,0.28115666,0.5282156,5.8264284,-0.07391464,-1.726762,-9.8625,35.30625,3.61875,watch_1
13737660961977,1.18684,0.8745767,0.51864433,5.8264284,-0.07391464,-1.726762,-9.356251,37.36875,3.05625,watch_1
13737650109998,1.18684,0.8745767,0.51864433,5.8264284,-0.07391464,-1.726762,-9.356251,37.36875,3.05625,watch_1
13737670961925,1.18684,0.8745767,0.51864433,5.8264284,-0.07391464,-1.726762,-10.650001,38.568752,-1.575,watch_1
13737664220259,2.4119651,1.3100704,0.3894319,4.9919868,0.082466744,-0.7371611,-10.9875,34.125,-1.03125,watch_1
13737680961873,2.4119651,1.3100704,0.3894319,4.9919868,0.082466744,-0.7371611,-10.9875,34.125,-1.03125,watch_1
13737669183019,2.4119651,1.3100704,0.3894319,4.9919868,0.082466744,-0.7371611,-10.9875,34.125,-1.03125,watch_1
13737690961821,2.4119651,1.3100704,0.3894319,4.9919868,0.082466744,-0.7371611,-10.387501,37.55625,-5.6625004,watch_1
13737683294217,2.9575288,0.46779683,1.3417753,4.3041534,0.4489856,0.17791437,-12.075001,34.350002,-4.51875,watch_1
13737688256977,2.9575288,0.46779683,1.3417753,4.3041534,0.4489856,0.17791437,-12.075001,34.350002,-4.51875,watch_1
13737700961769,2.9575288,0.46779683,1.3417753,4.3041534,0.4489856,0.17791437,-12.075001,34.350002,-4.51875,watch_1
13737710961717,2.9575288,0.46779683,1.3417753,4.3041534,0.4489856,0.17791437,-9.543751,36.018753,-7.4437504,watch_1
13737702367238,2.254039,1.2335001,3.3852458,3.53202,0.9303471,1.1540763,-9.75,38.568752,-8.887501,watch_1
13737707329998,2.254039,1.2335001,3.3852458,3.53202,0.9303471,1.1540763,-9.75,38.568752,-8.887501,watch_1
13737720961665,2.254039,1.2335001,3.3852458,3.53202,0.9303471,1.1540763,-9.75,38.568752,-8.887501,watch_1
13737730961613,2.254039,1.2335001,3.3852458,3.53202,0.9303471,1.1540763,-6.7125,36.131252,-8.4375,watch_1
13737726404009,1.0193424,2.745764,6.3140607,3.53202,0.9303471,1.1540763,-6.7125,36.131252,-8.4375,watch_1
13737721441248,1.0193424,2.745764,6.3140607,1.8484768,1.3628393,2.0300565,-6.7125,36.131252,-8.4375,watch_1
13737740961561,1.0193424,2.745764,6.3140607,1.8484768,1.3628393,2.0300565,-6.6000004,36.018753,-9.58125,watch_1
13737740514217,-0.13399807,2.626123,7.2616186,-0.9615012,1.5143338,2.672686,-4.4625,37.706253,-8.625,watch_1
13737745476977,-0.13399807,2.626123,7.2616186,-0.9615012,1.5143338,2.672686,-4.4625,37.706253,-8.625,watch_1
13737750961509,-0.13399807,2.626123,7.2616186,-0.9615012,1.5143338,2.672686,-4.4625,37.706253,-8.625,watch_1
13737760961457,-0.13399807,2.626123,7.2616186,-0.9615012,1.5143338,2.672686,-5.0062504,38.2125,-9.618751,watch_1
13737770961404,-1.0767702,-1.8053846,6.7686973,-0.9615012,1.5143338,2.672686,-2.7,37.350002,-8.1,watch_1
13737764550988,-1.0767702,-1.8053846,6.7686973,-0.9615012,1.5143338,2.672686,-2.7,37.350002,-8.1,watch_1
13737759588227,-1.0767702,-1.8053846,6.7686973,-3.6945102,1.2370012,3.251786,-1.81875,40.818752,-6.1687503,watch_1
13737780961352,-1.0767702,-1.8053846,6.7686973,-3.6945102,1.2370012,3.251786,-1.81875,40.818752,-6.1687503,watch_1
13737790961300,-1.0767702,-1.8053846,6.7686973,-3.6945102,1.2370012,3.251786,-0.675,40.068752,-3.7687502,watch_1
13737783624009,-1.4548361,-9.113065,5.8881383,-3.6945102,1.2370012,3.251786,-0.675,40.068752,-3.7687502,watch_1
13737778661248,-1.4548361,-9.113065,5.8881383,-5.5319915,0.8460477,3.5083492,-0.675,40.068752,-3.7687502,watch_1
13737800961248,-1.4548361,-9.113065,5.8881383,-5.5319915,0.8460477,3.5083492,-0.056250002,39.975002,-2.53125,watch_1
13737810961196,-1.4548361,-9.113065,5.8881383,-5.5319915,0.8460477,3.5083492,2.025,39.15,2.1375,watch_1
13737802698019,-1.4261223,-15.501902,1.7437695,-6.6437654,0.456316,3.2896595,2.5125,40.59375,3.075,watch_1
13737797735259,-1.4261223,-15.501902,1.7437695,-6.6437654,0.456316,3.2896595,2.5125,40.59375,3.075,watch_1
13737820961144,-1.4261223,-15.501902,1.7437695,-6.6437654,0.456316,3.2896595,2.5125,40.59375,3.075,watch_1
13737830961092,0.4881358,-18.081364,-2.9318058,-6.6437654,0.456316,3.2896595,3.0375001,38.193752,6.1312504,watch_1
13737821740988,0.4881358,-18.081364,-2.9318058,-6.6437654,0.456316,3.2896595,3.0375001,38.193752,6.1312504,watch_1
13737816778227,0.4881358,-18.081364,-2.9318058,-6.9088807,-0.10567961,2.8803802,3.0375001,38.193752,6.1312504,watch_1
13737840961040,0.4881358,-18.081364,-2.9318058,-6.9088807,-0.10567961,2.8803802,4.51875,39.075,7.51875,watch_1
13737850960988,-0.6891329,-14.621343,-5.7601223,-6.9088807,-0.10567961,2.8803802,5.7375,35.71875,12.7875,watch_1
13737840814009,-0.6891329,-14.621343,-5.7601223,-6.9088807,-0.10567961,2.8803802,5.7375,35.71875,12.7875,watch_1
13737835851248,-0.6891329,-14.621343,-5.7601223,-6.816029,-0.15821397,2.5126395,6.1875005,37.18125,12.69375,watch_1
13737860960936,-0.6891329,-14.621343,-5.7601223,-6.816029,-0.15821397,2.5126395,6.1875005,37.18125,12.69375,watch_1
13737854925259,-4.3836513,-18.08615,-7.435098,-5.869189,-0.033597562,1.5230386,8.15625,35.381252,16.44375,watch_1
13737859888019,-4.3836513,-18.08615,-7.435098,-5.869189,-0.033597562,1.5230386,8.15625,35.381252,16.44375,watch_1
13737870960884,-4.3836513,-18.08615,-7.435098,-5.869189,-0.033597562,1.5230386,8.15625,35.381252,16.44375,watch_1
13737880960832,-4.3836513,-18.08615,-7.435098,-5.869189,-0.033597562,1.5230386,8.137501,36.487503,17.0625,watch_1
13737873998227,-4.082155,-26.508886,-11.71825,-4.557051,0.27305657,0.21578798,8.137501,36.487503,17.0625,watch_1
13737878960988,-4.082155,-26.508886,-11.71825,-4.557051,0.27305657,0.21578798,8.137501,36.487503,17.0625,watch_1
13737890960779,-4.082155,-26.508886,-11.71825,-4.557051,0.27305657,0.21578798,6.0937505,32.34375,20.1375,watch_1
13737900960727,-4.082155,-26.508886,-11.71825,-4.557051,0.27305657,0.21578798,5.0437503,32.5125,18.975,watch_1
13737898034998,1.5601203,-29.298918,-9.320642,-2.4190245,0.54550225,-0.936303,5.0437503,32.5125,18.975,watch_1
13737910960675,1.5601203,-29.298918,-9.320642,-2.4190245,0.54550225,-0.936303,6.7125,32.25,21.675001,watch_1
13737893072238,1.5601203,-29.298918,-9.320642,-2.4190245,0.54550225,-0.936303,6.7125,32.25,21.675001,watch_1
13737920960623,1.5601203,-29.298918,-9.320642,-2.4190245,0.54550225,-0.936303,3.7875001,33.018753,21.112501,watch_1
13737917108019,2.6703901,-20.646471,-4.970491,-0.17592905,0.76052666,-2.4268131,3.7875001,33.018753,21.112501,watch_1
13737912145259,2.6703901,-20.646471,-4.970491,-0.17592905,0.76052666,-2.4268131,3.7875001,33.018753,21.112501,watch_1
13737930960571,2.6703901,-20.646471,-4.970491,-0.17592905,0.76052666,-2.4268131,4.5375004,32.8125,21.65625,watch_1
13737940960519,2.6703901,-20.646471,-4.970491,-0.17592905,0.76052666,-2.4268131,1.63125,32.475002,19.893751,watch_1
13737936180988,0.55513483,-14.348561,-3.9128633,-0.17592905,0.76052666,-2.4268131,1.63125,32.475002,19.893751,watch_1
13737931218227,0.55513483,-14.348561,-3.9128633,1.152091,0.85704327,-3.4762788,1.63125,32.475002,19.893751,watch_1
13737950960467,0.55513483,-14.348561,-3.9128633,1.152091,0.85704327,-3.4762788,-0.41250002,31.63125,20.325,watch_1
13737960960415,0.55513483,-14.348561,-3.9128633,1.152091,0.85704327,-3.4762788,0.31875002,32.550003,21.7875,watch_1
13737950292238,-0.043070808,-11.505888,-4.1904306,1.9767585,0.8704823,-3.9234319,0.31875002,32.550003,21.7875,watch_1
13737955254998,-0.043070808,-11.505888,-4.1904306,1.9767585,0.8704823,-3.9234319,0.31875002,32.550003,21.7875,watch_1
13737970960363,-0.043070808,-11.505888,-4.1904306,1.9767585,0.8704823,-3.9234319,-1.0875001,32.25,20.19375,watch_1
13737980960311,-0.043070808,-11.505888,-4.1904306,1.9767585,0.8704823,-3.9234319,-4.59375,33.24375,18.825,watch_1
13737969365259,-0.11006984,-8.983852,-3.3338,3.2265878,0.99143356,-4.128682,-4.59375,33.24375,18.825,watch_1
13737990960259,-0.11006984,-8.983852,-3.3338,3.2265878,0.99143356,-4.128682,-5.0062504,35.0625,17.1375,watch_1
13737974328019,-0.11006984,-8.983852,-3.3338,3.2265878,0.99143356,-4.128682,-4.59375,33.24375,18.825,watch_1
13738000960207,-0.11006984,-8.983852,-3.3338,3.2265878,0.99143356,-4.128682,-8.26875,34.10625,16.143751,watch_1
13737993401977,-0.64606214,-6.122037,-0.8739785,4.838049,0.93767744,-4.0517135,-8.26875,34.10625,16.143751,watch_1
13737988439217,-0.64606214,-6.122037,-0.8739785,4.838049,0.93767744,-4.0517135,-9.6,36.43125,11.83125,watch_1
13738010960154,-0.64606214,-6.122037,-0.8739785,4.838049,0.93767744,-4.0517135,-9.6,36.43125,11.83125,watch_1
13738020960102,-0.64606214,-6.122037,-0.8739785,4.838049,0.93767744,-4.0517135,-9.262501,35.662502,9.76875,watch_1
13738007512238,-0.64606214,-6.122037,-0.8739785,6.007244,0.5186242,-3.7084074,-9.262501,35.662502,9.76875,watch_1
13738012474998,-0.81834537,-2.1499512,1.3992031,6.007244,0.5186242,-3.7084074,-9.262501,35.662502,9.76875,watch_1
13738030960050,-0.81834537,-2.1499512,1.3992031,6.007244,0.5186242,-3.7084074,-9.58125,37.21875,8.118751,watch_1
13738040959998,-0.19621146,1.0851451,2.4472594,6.007244,0.5186242,-3.7084074,-10.6125,34.85625,6.4875,watch_1
13738031518019,-0.19621146,1.0851451,2.4472594,6.007244,0.5186242,-3.7084074,-10.6125,34.85625,6.4875,watch_1
13738026555259,-0.19621146,1.0851451,2.4472594,6.3456635,0.064140804,-2.9998043,-10.6125,34.85625,6.4875,watch_1
13738050959946,-0.19621146,1.0851451,2.4472594,6.3456635,0.064140804,-2.9998043,-12.187501,35.831253,4.4812503,watch_1
13738045629217,1.3782659,2.2911277,2.2175484,5.946158,-0.14477496,-1.9540037,-12.187501,35.831253,4.4812503,watch_1
13738050591977,1.3782659,2.2911277,2.2175484,5.946158,-0.14477496,-1.9540037,-12.187501,35.831253,4.4812503,watch_1
13738060959894,1.3782659,2.2911277,2.2175484,5.946158,-0.14477496,-1.9540037,-12.675,36.318752,-0.8625,watch_1
13738070959842,1.3782659,2.2911277,2.2175484,5.946158,-0.14477496,-1.9540037,-12.675,36.318752,-0.8625,watch_1
13738064702238,1.3782659,2.2911277,2.2175484,5.2522154,-0.09224058,-0.7884737,-15.075001,34.0875,-4.2562504,watch_1
13738080959790,1.3782659,2.2911277,2.2175484,5.2522154,-0.09224058,-0.7884737,-15.075001,34.0875,-4.2562504,watch_1
13738069664998,2.5411777,0.9272188,0.95413804,5.2522154,-0.09224058,-0.7884737,-13.406251,37.3125,-5.7000003,watch_1
13738090959738,2.5411777,0.9272188,0.95413804,5.2522154,-0.09224058,-0.7884737,-13.406251,37.3125,-5.7000003,watch_1
13738088739009,2.766103,0.6305088,1.1264212,4.819723,0.2791652,0.3245219,-13.406251,37.3125,-5.7000003,watch_1
13738083776248,2.766103,0.6305088,1.1264212,4.819723,0.2791652,0.3245219,-13.406251,37.3125,-5.7000003,watch_1
13738100959686,2.766103,0.6305088,1.1264212,4.819723,0.2791652,0.3245219,-12.337501,36.35625,-7.0687504,watch_1
13738110959634,2.766103,0.6305088,1.1264212,4.819723,0.2791652,0.3245219,-13.425,35.1375,-9.543751,watch_1
13738102849217,1.7419748,3.8464625,3.6484563,4.0732465,0.8301652,1.620777,-11.793751,35.25,-11.26875,watch_1
13738120959582,1.7419748,3.8464625,3.6484563,4.0732465,0.8301652,1.620777,-11.793751,35.25,-11.26875,watch_1
13738107811977,1.7419748,3.8464625,3.6484563,4.0732465,0.8301652,1.620777,-11.793751,35.25,-11.26875,watch_1
13738130959529,1.7419748,3.8464625,3.6484563,4.0732465,0.8301652,1.620777,-11.6625,35.456253,-13.44375,watch_1
13738126885988,1.1150553,5.621937,6.390631,4.0732465,0.8301652,1.620777,-11.6625,35.456253,-13.44375,watch_1
13738140959477,1.1150553,5.621937,6.390631,1.8533638,1.3298526,2.5456262,-9.3,37.706253,-12.093751,watch_1
13738121923227,1.1150553,5.621937,6.390631,1.8533638,1.3298526,2.5456262,-9.3,37.706253,-12.093751,watch_1
13738150959425,1.1150553,5.621937,6.390631,1.8533638,1.3298526,2.5456262,-8.75625,34.2,-9.7875,watch_1
13738140996248,0.38763726,3.7411783,6.2757754,-1.5051708,1.5497639,3.1589346,-8.75625,34.2,-9.7875,watch_1
13738145959009,0.38763726,3.7411783,6.2757754,-1.5051708,1.5497639,3.1589346,-8.75625,34.2,-9.7875,watch_1
13738160959373,0.38763726,3.7411783,6.2757754,-1.5051708,1.5497639,3.1589346,-8.025001,37.96875,-9.7875,watch_1
13738170959321,0.38763726,3.7411783,6.2757754,-1.5051708,1.5497639,3.1589346,-3.6000001,37.3875,-9.075001,watch_1
13738165033019,-0.79920274,-2.5902305,5.3856454,-4.241845,1.3335178,3.7930121,-3.6000001,37.3875,-9.075001,watch_1
13738160070259,-0.79920274,-2.5902305,5.3856454,-4.241845,1.3335178,3.7930121,-3.6000001,37.3875,-9.075001,watch_1
13738180959269,-0.79920274,-2.5902305,5.3856454,-4.241845,1.3335178,3.7930121,-3.3187501,39.6375,-6.80625,watch_1
13738190959217,-0.79920274,-2.5902305,5.3856454,-4.241845,1.3335178,3.7930121,-1.2750001,39.975002,-3.8437502,watch_1
13738179143227,-1.8664017,-13.530215,5.337789,-5.615069,0.9926553,3.938398,-1.2750001,39.975002,-3.8437502,watch_1
13738200959165,-1.8664017,-13.530215,5.337789,-5.615069,0.9926553,3.938398,-1.95,39.16875,-2.9625,watch_1
13738184105988,-1.8664017,-13.530215,5.337789,-5.615069,0.9926553,3.938398,-1.95,39.16875,-2.9625,watch_1
13738210959113,-1.8664017,-13.530215,5.337789,-5.615069,0.9926553,3.938398,1.1625,39.6375,0.24375,watch_1
13738203179998,-0.7848458,-21.775883,1.8538394,-6.4666147,0.49296787,3.386176,1.1625,39.6375,0.24375,watch_1
13738198217238,-0.7848458,-21.775883,1.8538394,-6.4666147,0.49296787,3.386176,1.1625,39.6375,0.24375,watch_1
13738220959061,-0.7848458,-21.775883,1.8538394,-6.4666147,0.49296787,3.386176,2.1375,40.162502,1.7625,watch_1
13738230959009,-0.7848458,-21.775883,1.8538394,-6.4666147,0.49296787,3.386176,3.45,39.24375,6.0750003,watch_1
13738222253019,2.4263222,-16.138391,-2.0321047,-6.486162,-0.12889247,2.9414666,3.45,39.24375,6.0750003,watch_1
13738217290259,2.4263222,-16.138391,-2.0321047,-6.486162,-0.12889247,2.9414666,3.45,39.24375,6.0750003,watch_1
13738240958957,2.4263222,-16.138391,-2.0321047,-6.486162,-0.12889247,2.9414666,3.9375002,39.28125,7.4437504,watch_1
13738250958904,2.4263222,-16.138391,-2.0321047,-6.486162,-0.12889247,2.9414666,3.525,37.725002,11.025001,watch_1
13738241326977,-1.5457634,-14.707484,-6.315257,-6.486162,-0.12889247,2.9414666,3.525,37.725002,11.025001,watch_1
13738236364217,-1.5457634,-14.707484,-6.315257,-5.0469646,-0.2791652,2.686125,3.525,37.725002,11.025001,watch_1
13738260958852,-1.5457634,-14.707484,-6.315257,-5.0469646,-0.2791652,2.686125,5.83125,36.9,10.950001,watch_1
13738270958800,-1.5457634,-14.707484,-6.315257,-5.0469646,-0.2791652,2.686125,5.83125,36.9,10.650001,watch_1
13738260369998,-6.5611196,-24.135206,-7.664809,-5.0469646,-0.2791652,2.686125,5.83125,36.9,10.650001,watch_1
13738255407238,-6.5611196,-24.135206,-7.664809,-3.2351398,0.103236146,1.0856594,5.83125,36.9,10.650001,watch_1
13738280958748,-6.5611196,-24.135206,-7.664809,-3.2351398,0.103236146,1.0856594,7.51875,37.068752,12.8625,watch_1
13738274480259,-0.5407779,-30.634111,-6.535397,-2.2614214,0.4477639,-0.4659371,5.7375,35.381252,15.450001,watch_1
13738290958696,-0.5407779,-30.634111,-6.535397,-2.2614214,0.4477639,-0.4659371,5.7375,35.381252,15.450001,watch_1
13738279443019,-0.5407779,-30.634111,-6.535397,-2.2614214,0.4477639,-0.4659371,5.7375,35.381252,15.450001,watch_1
13738300958644,-0.5407779,-30.634111,-6.535397,-2.2614214,0.4477639,-0.4659371,5.3625,36.037502,15.0375,watch_1
13738298516977,4.23051,-22.847868,-2.4915266,-2.2614214,0.4477639,-0.4659371,5.3625,36.037502,15.0375,watch_1
13738293554217,4.23051,-22.847868,-2.4915266,-1.269377,0.41233373,-1.5593851,5.3625,36.037502,15.0375,watch_1
13738310958592,4.23051,-22.847868,-2.4915266,-1.269377,0.41233373,-1.5593851,3.24375,36.075,13.33125,watch_1
13738320958540,4.23051,-22.847868,-2.4915266,-1.269377,0.41233373,-1.5593851,1.9875001,35.006252,15.918751,watch_1
13738317589998,3.0723844,-15.573687,-1.649253,-0.20769402,0.48685923,-2.815323,1.9875001,35.006252,15.918751,watch_1
13738312627238,3.0723844,-15.573687,-1.649253,-0.20769402,0.48685923,-2.815323,1.9875001,35.006252,15.918751,watch_1
13738330958488,3.0723844,-15.573687,-1.649253,-0.20769402,0.48685923,-2.815323,0.15,34.800003,15.000001,watch_1
13738340958436,3.0723844,-15.573687,-1.649253,-0.20769402,0.48685923,-2.815323,0.16875,36.3375,15.431251,watch_1
13738336664009,1.3686945,-10.984252,-2.7116663,0.66217744,0.5577195,-3.6399906,0.16875,36.3375,15.431251,watch_1
13738331701248,1.3686945,-10.984252,-2.7116663,0.66217744,0.5577195,-3.6399906,0.16875,36.3375,15.431251,watch_1
13738350958384,1.3686945,-10.984252,-2.7116663,0.66217744,0.5577195,-3.6399906,-1.125,35.30625,16.10625,watch_1
13738360958332,1.3686945,-10.984252,-2.7116663,0.66217744,0.5577195,-3.6399906,-3.7500002,36.15,13.9875,watch_1
13738350774217,0.3493521,-9.170493,-1.7114664,1.8093815,0.64568406,-3.7707155,-3.7500002,36.15,13.9875,watch_1
13738355736977,0.3493521,-9.170493,-1.7114664,1.8093815,0.64568406,-3.7707155,-3.7500002,36.15,13.9875,watch_1
13738370958279,0.3493521,-9.170493,-1.7114664,1.8093815,0.64568406,-3.7707155,-4.78125,33.600002,14.55,watch_1
13738380958227,0.3493521,-9.170493,-1.7114664,1.8093815,0.64568406,-3.7707155,-6.1875005,34.74375,12.243751,watch_1
13738374810988,0.3062813,-7.1653075,0.5665008,1.8093815,0.64568406,-3.7707155,-6.1875005,34.74375,12.243751,watch_1
13738369848227,0.3062813,-7.1653075,0.5665008,2.999346,0.5564978,-3.6656468,-6.1875005,34.74375,12.243751,watch_1
13738390958175,0.3062813,-7.1653075,0.5665008,2.999346,0.5564978,-3.6656468,-6.0937505,35.775,11.137501,watch_1
13738393884009,0.19142582,-4.135994,2.3946173,2.999346,0.5564978,-3.6656468,-9.28125,35.34375,11.25,watch_1
13738400958123,0.19142582,-4.135994,2.3946173,2.999346,0.5564978,-3.6656468,-9.28125,35.34375,11.25,watch_1
13738388921248,0.19142582,-4.135994,2.3946173,4.0268207,0.32559094,-3.3651013,-10.1625,36.16875,7.14375,watch_1
13738410958071,0.19142582,-4.135994,2.3946173,4.0268207,0.32559094,-3.3651013,-10.1625,36.16875,7.14375,watch_1
13738420958019,0.19142582,-4.135994,2.3946173,4.0268207,0.32559094,-3.3651013,-9.69375,35.11875,6.1312504,watch_1
13738407995259,0.2440679,-1.6331015,2.9353952,4.482526,0.09346231,-2.9484916,-9.69375,35.11875,6.1312504,watch_1
13738412958019,0.2440679,-1.6331015,2.9353952,4.482526,0.09346231,-2.9484916,-9.69375,35.11875,6.1312504,watch_1
13738430957967,0.2440679,-1.6331015,2.9353952,4.482526,0.09346231,-2.9484916,-12.618751,34.800003,3.5062501,watch_1
13738440957915,0.2440679,-1.6331015,2.9353952,4.482526,0.09346231,-2.9484916,-12.4875,34.706253,2.6625001,watch_1
13738432030988,1.2346965,0.506082,2.519044,4.482526,0.09346231,-2.9484916,-12.4875,34.706253,2.6625001,watch_1
13738427068227,1.2346965,0.506082,2.519044,4.5423903,-0.089797124,-2.1934626,-12.4875,34.706253,2.6625001,watch_1
13738450957863,1.2346965,0.506082,2.519044,4.5423903,-0.089797124,-2.1934626,-14.343751,36.24375,-1.2,watch_1
13738460957811,1.2346965,0.506082,2.519044,4.5423903,-0.089797124,-2.1934626,-13.425,36.1875,0.075,watch_1
13738451104998,1.8855443,0.56350976,1.7676977,4.5423903,-0.089797124,-2.1934626,-13.425,36.1875,0.075,watch_1
13738446142238,1.8855443,0.56350976,1.7676977,4.3970046,-0.06780599,-0.9961677,-11.418751,35.9625,-3.0,watch_1
13738470957759,1.8855443,0.56350976,1.7676977,4.3970046,-0.06780599,-0.9961677,-11.418751,35.9625,-3.0,watch_1
13738465185259,1.8855443,0.56350976,1.7676977,4.1990843,0.126449,0.087506376,-11.418751,35.9625,-3.0,watch_1
13738480957707,1.8855443,0.56350976,1.7676977,4.1990843,0.126449,0.087506376,-11.925,35.643753,-4.93125,watch_1
13738470148019,2.684747,-0.029910283,1.2221341,4.1990843,0.126449,0.087506376,-11.925,35.643753,-4.93125,watch_1
13738490957654,2.684747,-0.029910283,1.2221341,4.1990843,0.126449,0.087506376,-12.450001,35.325,-6.2625003,watch_1
13738484258227,2.684747,-0.029910283,1.2221341,4.008495,0.49418962,1.155298,-12.450001,35.325,-6.2625003,watch_1
13738500957602,2.684747,-0.029910283,1.2221341,4.008495,0.49418962,1.155298,-12.937501,35.15625,-7.4625,watch_1
13738489220988,2.751746,0.87936234,2.4329023,4.008495,0.49418962,1.155298,-12.937501,35.15625,-7.4625,watch_1
13738510957550,2.751746,0.87936234,2.4329023,4.008495,0.49418962,1.155298,-11.981251,34.612503,-9.337501,watch_1
13738508294998,1.9812572,3.2482567,5.017151,4.008495,0.49418962,1.155298,-11.981251,34.612503,-9.337501,watch_1
13738503332238,1.9812572,3.2482567,5.017151,3.071428,0.9608903,2.1571162,-10.462501,34.96875,-9.76875,watch_1
13738520957498,1.9812572,3.2482567,5.017151,3.071428,0.9608903,2.1571162,-10.462501,34.96875,-9.76875,watch_1
13738530957446,1.9812572,3.2482567,5.017151,3.071428,0.9608903,2.1571162,-8.4375,35.8125,-11.08125,watch_1
13738522405259,1.9812572,3.2482567,5.017151,0.6658426,1.3090832,2.925584,-8.4375,35.8125,-11.08125,watch_1
13738540957394,0.7848458,4.449454,6.6538415,0.6658426,1.3090832,2.925584,-5.175,36.9375,-10.81875,watch_1
13738527368019,0.7848458,4.449454,6.6538415,0.6658426,1.3090832,2.925584,-5.175,36.9375,-10.81875,watch_1
13738550957342,0.7848458,4.449454,6.6538415,0.6658426,1.3090832,2.925584,-6.39375,38.0625,-10.78125,watch_1
13738546441977,-0.5168497,0.86979103,6.4241304,-2.372599,1.2760966,3.5792096,-6.39375,38.0625,-10.78125,watch_1
13738541479217,-0.5168497,0.86979103,6.4241304,-2.372599,1.2760966,3.5792096,-6.39375,38.0625,-10.78125,watch_1
13738560957290,-0.5168497,0.86979103,6.4241304,-2.372599,1.2760966,3.5792096,-3.8812501,39.075,-10.14375,watch_1
13738570957238,-0.5168497,0.86979103,6.4241304,-2.372599,1.2760966,3.5792096,-2.2687502,36.787502,-6.1125,watch_1
13738560552238,-1.5026926,-8.045866,5.825925,-4.6828895,0.99998564,3.933511,-0.5625,37.893753,-0.93750006,watch_1
13738580957186,-1.5026926,-8.045866,5.825925,-4.6828895,0.99998564,3.933511,-0.5625,37.893753,-0.93750006,watch_1
13738565514998,-1.5026926,-8.045866,5.825925,-4.6828895,0.99998564,3.933511,-0.5625,37.893753,-0.93750006,watch_1
13738590957134,-1.5026926,-8.045866,5.825925,-4.6828895,0.99998564,3.933511,-0.0375,38.5125,-0.7875,watch_1
13738579625259,-1.7371893,-18.650856,3.342175,-6.0610003,0.8008437,3.5938702,-0.0375,38.5125,-0.7875,watch_1
13738584588019,-1.7371893,-18.650856,3.342175,-6.0610003,0.8008437,3.5938702,-0.0375,38.5125,-0.7875,watch_1
13738600957082,-1.7371893,-18.650856,3.342175,-6.0610003,0.8008437,3.5938702,0.61875004,38.7,1.1625,watch_1
13738610957029,-1.7371893,-18.650856,3.342175,-6.0610003,0.8008437,3.5938702,2.0062501,39.956253,3.6562502,watch_1
13738603661977,0.8135597,-19.981266,-3.9655054,-6.333446,0.36468628,2.9194756,2.0062501,39.956253,3.6562502,watch_1
13738598699217,0.8135597,-19.981266,-3.9655054,-6.333446,0.36468628,2.9194756,2.0062501,39.956253,3.6562502,watch_1
13738620956977,0.8135597,-19.981266,-3.9655054,-6.333446,0.36468628,2.9194756,2.7562501,38.643753,3.73125,watch_1
13738630956925,0.8135597,-19.981266,-3.9655054,-6.333446,0.36468628,2.9194756,4.03125,38.86875,7.3500004,watch_1
13738622734998,-0.3924229,-18.44986,-4.2095733,-6.333446,0.36468628,2.9194756,4.03125,38.86875,7.3500004,watch_1
13738640956873,-0.3924229,-18.44986,-4.2095733,-4.8649273,0.2254091,2.7569854,6.20625,38.30625,7.2187505,watch_1
13738617772238,-0.3924229,-18.44986,-4.2095733,-4.8649273,0.2254091,2.7569854,6.20625,38.30625,7.2187505,watch_1
13738650956821,-0.3924229,-18.44986,-4.2095733,-4.8649273,0.2254091,2.7569854,4.51875,37.4625,9.8625,watch_1
13738641809009,-3.9673,-21.972094,-3.3242288,-4.8649273,0.2254091,2.7569854,4.51875,37.4625,9.8625,watch_1
13738636846248,-3.9673,-21.972094,-3.3242288,-3.1606143,0.23273948,1.5853468,4.51875,37.4625,9.8625,watch_1
13738660956769,-3.9673,-21.972094,-3.3242288,-3.1606143,0.23273948,1.5853468,5.025,36.84375,8.53125,watch_1
13738670956717,-3.9673,-21.972094,-3.3242288,-3.1606143,0.23273948,1.5853468,6.4687505,37.256252,11.26875,watch_1
13738660881977,-3.2542388,-27.14059,-1.5822539,-1.8814635,0.2864956,-0.0029016077,6.4687505,37.256252,11.26875,watch_1
13738655919217,-3.2542388,-27.14059,-1.5822539,-1.8814635,0.2864956,-0.0029016077,6.4687505,37.256252,11.26875,watch_1
13738680956665,-3.2542388,-27.14059,-1.5822539,-1.8814635,0.2864956,-0.0029016077,6.0,37.068752,10.8,watch_1
13738674962238,-3.2542388,-27.14059,-1.5822539,-0.7562506,0.064140804,-1.1696533,6.0,37.068752,10.8,watch_1
13738690956613,-3.2542388,-27.14059,-1.5822539,-0.7562506,0.064140804,-1.1696533,4.18125,38.25,10.9125,watch_1
13738679924998,1.9621146,-24.312275,-0.51505506,-0.7562506,0.064140804,-1.1696533,4.21875,37.0875,11.90625,watch_1
13738700956561,1.9621146,-24.312275,-0.51505506,-0.7562506,0.064140804,-1.1696533,4.21875,37.0875,11.90625,watch_1
13738694036248,1.9621146,-24.312275,-0.51505506,0.22235478,-0.029932374,-2.3119705,4.21875,37.0875,11.90625,watch_1
13738710956509,1.9621146,-24.312275,-0.51505506,0.22235478,-0.029932374,-2.3119705,2.7,37.068752,10.856251,watch_1
13738698999009,3.0388846,-16.755741,0.12622139,0.22235478,-0.029932374,-2.3119705,0.71250004,36.65625,10.81875,watch_1
13738720956457,3.0388846,-16.755741,0.12622139,0.22235478,-0.029932374,-2.3119705,0.71250004,36.65625,10.81875,watch_1
13738718071977,2.2588246,-10.869397,-1.0031909,0.6743947,-0.051923506,-3.1073165,0.71250004,36.65625,10.81875,watch_1
13738730956404,2.2588246,-10.869397,-1.0031909,0.6743947,-0.051923506,-3.1073165,1.1437501,37.6875,11.493751,watch_1
13738713109217,2.2588246,-10.869397,-1.0031909,0.6743947,-0.051923506,-3.1073165,1.1437501,37.6875,11.493751,watch_1
13738740956352,2.2588246,-10.869397,-1.0031909,0.6743947,-0.051923506,-3.1073165,-2.04375,37.275,11.15625,watch_1
13738737145988,1.3256238,-7.8257265,-0.4001996,1.00304,0.028710645,-3.312567,-2.04375,37.275,11.15625,watch_1
13738732183227,1.3256238,-7.8257265,-0.4001996,1.00304,0.028710645,-3.312567,-2.04375,37.275,11.15625,watch_1
13738750956300,1.3256238,-7.8257265,-0.4001996,1.00304,0.028710645,-3.312567,-0.5625,35.625,12.075001,watch_1
13738760956248,1.3256238,-7.8257265,-0.4001996,1.00304,0.028710645,-3.312567,-4.03125,34.2,11.38125,watch_1
13738756219009,0.9284152,-6.040681,1.1312069,1.00304,0.028710645,-3.312567,-4.03125,34.2,11.38125,watch_1
13738751256248,0.9284152,-6.040681,1.1312069,1.1374302,0.08613193,-3.2026112,-4.03125,34.2,11.38125,watch_1
13738770956196,0.9284152,-6.040681,1.1312069,1.1374302,0.08613193,-3.2026112,-5.0437503,37.03125,11.418751,watch_1
13738780956144,0.9284152,-6.040681,1.1312069,1.1374302,0.08613193,-3.2026112,-5.1937504,36.05625,10.05,watch_1
13738770330259,0.8709874,-4.8586264,2.1218355,1.2889247,0.031154104,-2.8861833,-5.1937504,36.05625,10.05,watch_1
13738775293019,0.8709874,-4.8586264,2.1218355,1.2889247,0.031154104,-2.8861833,-5.1937504,36.05625,10.05,watch_1
13738790956092,0.8709874,-4.8586264,2.1218355,1.2889247,0.031154104,-2.8861833,-6.8250003,36.45,8.08125,watch_1
13738800956040,0.8709874,-4.8586264,2.1218355,1.2889247,0.031154104,-2.8861833,-8.94375,36.16875,7.8562503,watch_1
13738794365988,0.9092726,-4.581059,2.8731818,1.5344924,-0.06902772,-2.5098906,-8.94375,36.16875,7.8562503,watch_1
13738789403227,0.9092726,-4.581059,2.8731818,1.5344924,-0.06902772,-2.5098906,-8.94375,36.16875,7.8562503,watch_1
13738810955988,0.9092726,-4.581059,2.8731818,1.5344924,-0.06902772,-2.5098906,-6.8250003,36.45,8.3625,watch_1
13738820955936,0.9092726,-4.581059,2.8731818,1.5344924,-0.06902772,-2.5098906,-7.4062505,36.675003,6.9750004,watch_1
13738808477238,1.2394822,-3.4612179,2.7583263,1.468519,-0.14844014,-2.0871723,-7.4062505,36.675003,6.9750004,watch_1
13738813439998,1.2394822,-3.4612179,2.7583263,1.468519,-0.14844014,-2.0871723,-7.4062505,36.675003,6.9750004,watch_1
13738830955884,1.2394822,-3.4612179,2.7583263,1.468519,-0.14844014,-2.0871723,-8.887501,36.75,7.36875,watch_1
13738840955832,1.2394822,-3.4612179,2.7583263,1.468519,-0.14844014,-2.0871723,-8.75625,35.7,5.025,watch_1
13738832513019,1.7324036,-2.2743778,2.1457636,1.6847651,-0.2290743,-1.3932298,-8.75625,35.7,5.025,watch_1
13738827550259,1.7324036,-2.2743778,2.1457636,1.6847651,-0.2290743,-1.3932298,-8.75625,35.7,5.025,watch_1
13738850955779,1.7324036,-2.2743778,2.1457636,1.6847651,-0.2290743,-1.3932298,-11.118751,37.3875,4.59375,watch_1
13738860955727,1.7324036,-2.2743778,2.1457636,1.6847651,-0.2290743,-1.3932298,-10.125,37.275,2.68125,watch_1
13738846624217,1.7324036,-2.2743778,2.1457636,2.1062617,-0.20341797,-0.41462448,-10.125,37.275,2.68125,watch_1
13738851586977,1.9621146,-1.8436699,1.5858432,2.1062617,-0.20341797,-0.41462448,-9.9375,37.425003,3.1125002,watch_1
13738870955675,1.9621146,-1.8436699,1.5858432,2.1062617,-0.20341797,-0.41462448,-9.9375,37.425003,3.1125002,watch_1
13738870659998,2.2301106,-1.1928221,1.8681962,2.1062617,-0.20341797,-0.41462448,-9.9375,37.425003,3.1125002,watch_1
13738865697238,2.2301106,-1.1928221,1.8681962,2.3237295,-0.1301142,0.56398094,-9.9375,37.425003,3.1125002,watch_1
13738880955623,2.2301106,-1.1928221,1.8681962,2.3237295,-0.1301142,0.56398094,-10.275001,37.0875,3.54375,watch_1
13738890955571,2.2301106,-1.1928221,1.8681962,2.3237295,-0.1301142,0.56398094,-9.225,37.256252,2.34375,watch_1
13738889703019,1.847259,-0.4989035,3.045465,2.3237295,-0.1301142,0.56398094,-9.225,37.256252,2.34375,watch_1
13738900955519,1.847259,-0.4989035,3.045465,1.9999713,0.01527162,1.4570652,-9.31875,36.881252,-0.675,watch_1
13738884740259,1.847259,-0.4989035,3.045465,1.9999713,0.01527162,1.4570652,-9.31875,36.881252,-0.675,watch_1
13738910955467,1.847259,-0.4989035,3.045465,1.9999713,0.01527162,1.4570652,-7.3125005,37.40625,0.375,watch_1
13738908776977,1.2969099,0.051445685,3.437888,0.7684679,0.077579826,2.2023203,-7.3125005,37.40625,0.375,watch_1
13738903814217,1.2969099,0.051445685,3.437888,0.7684679,0.077579826,2.2023203,-7.3125005,37.40625,0.375,watch_1
13738920955415,1.2969099,0.051445685,3.437888,0.7684679,0.077579826,2.2023203,-6.95625,38.025,-0.075,watch_1
13738930955363,1.2969099,0.051445685,3.437888,0.7684679,0.077579826,2.2023203,-4.3500004,36.9,1.9312501,watch_1
13738922887238,1.0767702,-2.408376,2.7583263,-0.99815303,0.11911863,2.8266242,-4.3500004,36.9,1.9312501,watch_1
13738927849998,1.0767702,-2.408376,2.7583263,0.7684679,0.077579826,2.2023203,-4.3500004,36.9,1.9312501,watch_1
13738940955311,1.0767702,-2.408376,2.7583263,-0.99815303,0.11911863,2.8266242,-5.3250003,37.800003,0.71250004,watch_1
13738950955259,1.0767702,-2.408376,2.7583263,-0.99815303,0.11911863,2.8266242,-2.1375,39.0,3.7125,watch_1
13738941961248,0.5886344,-7.7826557,1.5523437,-2.6267185,0.3121519,3.220021,-1.6125001,38.362503,3.2625,watch_1
13738946924009,0.5886344,-7.7826557,1.5523437,-2.6267185,0.3121519,3.220021,-1.6125001,38.362503,3.2625,watch_1
13738960955207,0.5886344,-7.7826557,1.5523437,-2.6267185,0.3121519,3.220021,-1.6125001,38.362503,3.2625,watch_1
13738970955154,0.5886344,-7.7826557,1.5523437,-2.6267185,0.3121519,3.220021,-1.125,38.7,3.5625002,watch_1
13738961034217,0.023928227,-14.664413,0.46121657,-3.3939648,0.43554658,3.2359035,-1.125,38.7,3.5625002,watch_1
13738965996977,0.023928227,-14.664413,0.46121657,-3.3939648,0.43554658,3.2359035,-1.125,38.7,3.5625002,watch_1
13738980955102,0.023928227,-14.664413,0.46121657,-3.3939648,0.43554658,3.2359035,-0.16875,37.5,5.83125,watch_1
13738990955050,0.023928227,-14.664413,0.46121657,-3.3939648,0.43554658,3.2359035,-0.35625002,35.4375,8.625,watch_1
13738980108227,0.24885355,-15.951752,-1.4769697,-3.4159558,0.21563527,2.9378014,-0.35625002,35.4375,8.625,watch_1
13738985070988,0.24885355,-15.951752,-1.4769697,-3.4159558,0.21563527,2.9378014,-0.35625002,35.4375,8.625,watch_1
13739000954998,0.24885355,-15.951752,-1.4769697,-3.4159558,0.21563527,2.9378014,1.63125,36.956253,9.431251,watch_1
13739010954946,0.24885355,-15.951752,-1.4769697,-3.4159558,0.21563527,2.9378014,3.61875,36.24375,8.71875,watch_1
13738999181248,-0.7178468,-14.075779,-2.5728827,-2.389703,0.21441354,2.5651739,3.61875,36.24375,8.71875,watch_1
13739004144009,-0.7178468,-14.075779,-2.5728827,-2.389703,0.21441354,2.5651739,3.61875,36.24375,8.71875,watch_1
13739020954894,-0.7178468,-14.075779,-2.5728827,-2.389703,0.21441354,2.5651739,3.91875,38.643753,10.556251,watch_1
13739030954842,-0.7178468,-14.075779,-2.5728827,-2.389703,0.21441354,2.5651739,3.9375002,35.943752,10.81875,watch_1
13739018255259,-0.7178468,-14.075779,-2.5728827,-1.0787872,0.26083925,1.8296927,3.9375002,35.943752,10.81875,watch_1
13739023218019,-2.7086751,-18.995422,-1.1706885,-1.0787872,0.26083925,1.8296927,3.9375002,35.943752,10.81875,watch_1
13739040954790,-2.7086751,-18.995422,-1.1706885,-1.0787872,0.26083925,1.8296927,6.2625003,37.143753,9.075001,watch_1
13739050954738,-2.7086751,-18.995422,-1.1706885,-1.0787872,0.26083925,1.8296927,4.96875,37.21875,10.668751,watch_1
13739042290988,-2.455036,-23.091934,-0.6586244,-0.65973395,0.17776164,0.753349,4.96875,37.21875,10.668751,watch_1
13739037328227,-2.455036,-23.091934,-0.6586244,-0.65973395,0.17776164,0.753349,4.96875,37.21875,10.668751,watch_1
13739070954634,-2.455036,-23.091934,-0.6586244,-0.65973395,0.17776164,0.753349,6.01875,37.350002,10.78125,watch_1
13739060954686,-2.455036,-23.091934,-0.6586244,-0.65973395,0.17776164,0.753349,6.01875,37.350002,10.78125,watch_1
13739061364998,-0.23449662,-23.929422,-0.07956135,-0.1197295,-0.03848448,-0.14095704,6.01875,37.350002,10.78125,watch_1
13739056402238,-0.23449662,-23.929422,-0.07956135,-0.1197295,-0.03848448,-0.14095704,6.01875,37.350002,10.78125,watch_1
13739080954582,-0.23449662,-23.929422,-0.07956135,-0.1197295,-0.03848448,-0.14095704,4.0125003,36.65625,11.043751,watch_1
13739080438019,1.5170496,-18.813568,0.8488538,0.5864302,-0.19853105,-1.1354449,4.0125003,36.65625,11.043751,watch_1
13739090954529,1.5170496,-18.813568,0.8488538,0.5864302,-0.19853105,-1.1354449,5.11875,37.068752,11.56875,watch_1
13739075475259,1.5170496,-18.813568,0.8488538,0.5864302,-0.19853105,-1.1354449,5.11875,37.068752,11.56875,watch_1
13739100954477,1.5170496,-18.813568,0.8488538,0.5864302,-0.19853105,-1.1354449,2.3812501,36.9,9.95625,watch_1
13739094549217,1.5170496,-18.813568,0.8488538,0.9786054,-0.2498437,-2.0089815,2.3812501,36.9,9.95625,watch_1
13739110954425,1.5170496,-18.813568,0.8488538,0.9786054,-0.2498437,-2.0089815,1.5562501,36.375,9.1875,watch_1
13739099511977,2.053042,-12.26202,0.82013994,0.9786054,-0.2498437,-2.0089815,1.5562501,36.375,9.1875,watch_1
13739120954373,2.053042,-12.26202,0.82013994,0.9786054,-0.2498437,-2.0089815,1.66875,35.79375,11.00625,watch_1
13739113592238,2.0817556,-8.6345005,0.738784,0.8820887,-0.3243692,-2.3718352,1.66875,35.79375,11.00625,watch_1
13739118554998,2.0817556,-8.6345005,0.738784,0.8820887,-0.3243692,-2.3718352,1.66875,35.79375,11.00625,watch_1
13739130954321,2.0817556,-8.6345005,0.738784,0.8820887,-0.3243692,-2.3718352,0.8625,36.862503,9.075001,watch_1
13739140954269,2.0817556,-8.6345005,0.738784,0.8820887,-0.3243692,-2.3718352,0.69375,36.693752,8.925,watch_1
13739137628019,1.8233309,-6.6771717,1.4183456,0.5009091,-0.29749113,-2.3376267,0.69375,36.693752,8.925,watch_1
13739132665259,1.8233309,-6.6771717,1.4183456,0.5009091,-0.29749113,-2.3376267,0.69375,36.693752,8.925,watch_1
13739150954217,1.8233309,-6.6771717,1.4183456,0.5009091,-0.29749113,-2.3376267,-0.112500004,37.425003,9.918751,watch_1
13739151739217,1.8233309,-6.6771717,1.4183456,0.17715079,-0.20952661,-2.120159,-1.5375,35.41875,8.793751,watch_1
13739160954165,1.8233309,-6.6771717,1.4183456,0.17715079,-0.20952661,-2.120159,-1.5375,35.41875,8.793751,watch_1
13739156701977,1.3304094,-5.3611193,2.0117657,0.17715079,-0.20952661,-2.120159,-1.5375,35.41875,8.793751,watch_1
13739170954113,1.3304094,-5.3611193,2.0117657,0.17715079,-0.20952661,-2.120159,-1.2750001,37.6875,9.900001,watch_1
13739180954061,1.3304094,-5.3611193,2.0117657,0.17715079,-0.20952661,-2.120159,-2.25,36.84375,10.3125,watch_1
13739175774998,0.8805587,-4.786842,2.236691,0.17715079,-0.20952661,-2.120159,-2.25,36.84375,10.3125,watch_1
13739190954009,0.8805587,-4.786842,2.236691,-0.0024434591,-0.1875355,-1.7683008,-3.7875001,36.675003,9.5625,watch_1
13739170812238,0.8805587,-4.786842,2.236691,-0.0024434591,-0.1875355,-1.7683008,-3.7875001,36.675003,9.5625,watch_1
13739200953957,0.8757731,-4.202993,1.9351953,-0.0024434591,-0.1875355,-1.7683008,-4.40625,37.706253,9.825001,watch_1
13739194848019,0.8757731,-4.202993,1.9351953,-0.0024434591,-0.1875355,-1.7683008,-4.40625,37.706253,9.825001,watch_1
13739189885259,0.8757731,-4.202993,1.9351953,0.014660755,-0.19120067,-1.3480258,-4.55625,36.2625,10.2375,watch_1
13739210953904,0.8757731,-4.202993,1.9351953,0.014660755,-0.19120067,-1.3480258,-4.55625,36.2625,10.2375,watch_1
13739220953852,0.8757731,-4.202993,1.9351953,0.014660755,-0.19120067,-1.3480258,-5.1375003,36.46875,10.44375,watch_1
13739208959217,1.0241281,-3.8488553,0.8775677,0.41294459,-0.18997894,-0.77259123,-5.3250003,36.65625,7.2187505,watch_1
