# Session ID: 20250816_124825
# Start Time: 1755341305728
# Device ID: watch_2
# Sample Count: 4654
# Generated by Watch IMU Recorder
timestamp,accel_x,accel_y,accel_z,gyro_x,gyro_y,gyro_z,mag_x,mag_y,mag_z,watch_name
26359815655833,0.18424734,-0.16689938,9.780065,-0.0029016077,-0.0003054324,0.0001527162,-631.575,-238.25626,-605.4375,watch_2
26359835278802,0.18424734,-0.17168503,9.756136,-0.0029016077,-0.0003054324,0.0001527162,-631.575,-238.25626,-605.4375,watch_2
26359854931823,0.19381863,-0.16211374,9.765707,-0.0029016077,-0.0003054324,0.0001527162,-631.575,-238.25626,-605.4375,watch_2
26359874554844,0.19381863,-0.16211374,9.765707,-0.0029016077,-0.0003054324,0.0001527162,-631.575,-238.25626,-605.4375,watch_2
26359892608177,0.19381863,-0.16211374,9.765707,-0.0029016077,-0.0003054324,0.0001527162,-634.1813,-236.96251,-609.2063,watch_2
26359902608125,0.19381863,-0.16211374,9.765707,-0.0029016077,-0.0003054324,0.0001527162,-634.1813,-236.96251,-609.2063,watch_2
26359894207812,0.18903299,-0.17168503,9.756136,-0.0029016077,-0.0003054324,0.0001527162,-634.1813,-236.96251,-609.2063,watch_2
26359889092708,0.18903299,-0.17168503,9.756136,-0.0004581486,-0.0003054324,0.0001527162,-634.1813,-236.96251,-609.2063,watch_2
26359912608073,0.18903299,-0.17168503,9.756136,-0.0004581486,-0.0003054324,0.0001527162,-632.90625,-237.4875,-610.03125,watch_2
26359922608021,0.18903299,-0.17168503,9.756136,-0.0004581486,-0.0003054324,0.0001527162,-632.98126,-237.13126,-607.4438,watch_2
26359913830833,0.18424734,-0.17168503,9.7704935,-0.0004581486,-0.0003054324,0.0001527162,-632.98126,-237.13126,-607.4438,watch_2
26359932607969,0.18424734,-0.17168503,9.7704935,-0.0004581486,0.0021380268,-0.0010690134,-634.125,-236.38126,-609.2625,watch_2
26359908715729,0.18424734,-0.17168503,9.7704935,-0.0004581486,0.0021380268,-0.0010690134,-634.125,-236.38126,-609.2625,watch_2
26359942607916,0.18424734,-0.17168503,9.7704935,-0.0004581486,0.0021380268,-0.0010690134,-632.8125,-236.79376,-609.0563,watch_2
26359933453802,0.18903299,-0.16689938,9.756136,-0.0004581486,0.0009162972,0.0001527162,-632.8125,-236.79376,-609.0563,watch_2
26359928338698,0.18903299,-0.16689938,9.756136,-0.0004581486,0.0009162972,0.0001527162,-632.8125,-236.79376,-609.0563,watch_2
26359952607864,0.18903299,-0.16689938,9.756136,-0.0004581486,0.0009162972,0.0001527162,-632.53125,-239.7375,-608.15625,watch_2
26359962607812,0.18903299,-0.16689938,9.756136,-0.0004581486,0.0009162972,0.0001527162,-631.3313,-238.63126,-606.67505,watch_2
26359947991719,0.18424734,-0.18125631,9.7704935,-0.0004581486,-0.0015271619,0.0001527162,-631.3313,-238.63126,-606.67505,watch_2
26359953106823,0.18424734,-0.18125631,9.7704935,-0.0004581486,-0.0015271619,0.0001527162,-631.3313,-238.63126,-606.67505,watch_2
26359972607760,0.18424734,-0.18125631,9.7704935,-0.0004581486,-0.0015271619,0.0001527162,-630.48755,-240.82501,-604.3313,watch_2
26359982607708,0.19860429,-0.17168503,9.7609215,-0.0004581486,-0.0015271619,0.0001527162,-633.2438,-236.40001,-609.5813,watch_2
26359967614739,0.19860429,-0.17168503,9.7609215,-0.0004581486,-0.0003054324,-0.0010690134,-633.2438,-236.40001,-609.5813,watch_2
26359972729844,0.19860429,-0.17168503,9.7609215,-0.0004581486,-0.0003054324,-0.0010690134,-633.2438,-236.40001,-609.5813,watch_2
26359992607656,0.19860429,-0.17168503,9.7609215,-0.0004581486,-0.0003054324,-0.0010690134,-631.6313,-237.07501,-607.7438,watch_2
26359992382812,0.18903299,-0.17168503,9.756136,-0.0004581486,-0.0003054324,0.0001527162,-631.6313,-237.07501,-607.7438,watch_2
26359987267708,0.18903299,-0.17168503,9.756136,-0.0004581486,-0.0003054324,0.0001527162,-631.6313,-237.07501,-607.7438,watch_2
26360002607604,0.18903299,-0.17168503,9.756136,-0.0004581486,-0.0003054324,0.0001527162,-632.1938,-236.56876,-609.16876,watch_2
26360012607552,0.18903299,-0.17168503,9.756136,-0.0004581486,-0.0003054324,0.0001527162,-631.40625,-236.51251,-606.60004,watch_2
26360022607500,0.19860429,-0.17168503,9.756136,0.00076358096,-0.0003054324,0.0001527162,-633.84375,-236.98126,-606.2625,watch_2
26360006890729,0.19860429,-0.17168503,9.756136,0.00076358096,-0.0003054324,0.0001527162,-633.84375,-236.98126,-606.2625,watch_2
26360012005833,0.19860429,-0.17168503,9.756136,0.00076358096,-0.0003054324,0.0001527162,-633.84375,-236.98126,-606.2625,watch_2
26360032607448,0.19860429,-0.17168503,9.756136,0.00076358096,-0.0003054324,0.0001527162,-633.09375,-236.85,-607.35004,watch_2
26360031659844,0.18424734,-0.18125631,9.756136,0.00076358096,-0.0003054324,0.0001527162,-633.16876,-236.00626,-607.875,watch_2
26360042607396,0.18424734,-0.18125631,9.756136,0.00076358096,-0.0003054324,0.0001527162,-633.16876,-236.00626,-607.875,watch_2
26360026544739,0.18424734,-0.18125631,9.756136,-0.0004581486,0.0021380268,0.0001527162,-633.16876,-236.00626,-607.875,watch_2
26360052607344,0.18424734,-0.18125631,9.756136,-0.0004581486,0.0021380268,0.0001527162,-633.22504,-237.99376,-607.53754,watch_2
26360051281823,0.18424734,-0.17168503,9.756136,0.00076358096,-0.0003054324,0.0001527162,-633.22504,-237.99376,-607.53754,watch_2
26360046166719,0.18424734,-0.17168503,9.756136,0.00076358096,-0.0003054324,0.0001527162,-633.22504,-237.99376,-607.53754,watch_2
26360062607291,0.18424734,-0.17168503,9.756136,0.00076358096,-0.0003054324,0.0001527162,-632.41876,-237.15001,-608.98126,watch_2
26360072607239,0.18424734,-0.17168503,9.756136,0.00076358096,-0.0003054324,0.0001527162,-633.9375,-237.35626,-609.1313,watch_2
26360065789739,0.18903299,-0.17647067,9.746565,-0.0004581486,-0.0003054324,0.0001527162,-633.9375,-237.35626,-609.1313,watch_2
26360070904844,0.18903299,-0.17647067,9.746565,-0.0004581486,-0.0003054324,0.0001527162,-633.9375,-237.35626,-609.1313,watch_2
26360082607187,0.18903299,-0.17647067,9.746565,-0.0004581486,-0.0003054324,0.0001527162,-633.9375,-237.35626,-609.1313,watch_2
26360092607135,0.18903299,-0.17647067,9.746565,-0.0004581486,-0.0003054324,0.0001527162,-633.2438,-237.975,-609.0,watch_2
26360085443698,0.19381863,-0.17647067,9.756136,-0.0004581486,-0.0003054324,0.0001527162,-633.2438,-237.975,-609.0,watch_2
26360090558802,0.19381863,-0.17647067,9.756136,-0.0004581486,-0.0003054324,0.0001527162,-633.2438,-237.975,-609.0,watch_2
26360102607083,0.19381863,-0.17647067,9.756136,-0.0004581486,-0.0003054324,0.0001527162,-633.65625,-236.00626,-610.40625,watch_2
26360112607031,0.19381863,-0.17647067,9.756136,-0.0004581486,-0.0003054324,0.0001527162,-632.3063,-236.475,-607.575,watch_2
26360105065729,0.18903299,-0.17647067,9.746565,-0.0004581486,-0.0015271619,0.0001527162,-633.6938,-236.77501,-607.85626,watch_2
26360122606979,0.18903299,-0.17647067,9.746565,-0.0004581486,-0.0015271619,0.0001527162,-633.6938,-236.77501,-607.85626,watch_2
26360110180833,0.18903299,-0.17647067,9.746565,-0.0004581486,-0.0015271619,0.0001527162,-633.6938,-236.77501,-607.85626,watch_2
26360132606927,0.18903299,-0.17647067,9.746565,-0.0004581486,-0.0015271619,0.0001527162,-635.325,-234.975,-609.67505,watch_2
26360142606875,0.18903299,-0.17647067,9.746565,0.00076358096,0.0009162972,0.0001527162,-633.11255,-236.83125,-608.66254,watch_2
26360124719739,0.18903299,-0.17647067,9.746565,0.00076358096,0.0009162972,0.0001527162,-633.11255,-236.83125,-608.66254,watch_2
26360129834844,0.19381863,-0.17168503,9.746565,0.00076358096,0.0009162972,0.0001527162,-633.11255,-236.83125,-608.66254,watch_2
26360152606823,0.19381863,-0.17168503,9.746565,0.00076358096,0.0009162972,0.0001527162,-634.7063,-236.15627,-610.21875,watch_2
26360149456823,0.1794617,-0.17647067,9.75135,0.00076358096,0.0009162972,0.0001527162,-634.7063,-236.15627,-610.21875,watch_2
26360144341719,0.1794617,-0.17647067,9.75135,-0.0004581486,0.0009162972,0.0001527162,-632.90625,-236.40001,-607.80005,watch_2
26360162606771,0.1794617,-0.17647067,9.75135,-0.0004581486,0.0009162972,0.0001527162,-632.90625,-236.40001,-607.80005,watch_2
26360172606719,0.1794617,-0.17647067,9.75135,-0.0004581486,0.0009162972,0.0001527162,-632.0625,-238.27501,-607.96875,watch_2
26360169079844,0.18424734,-0.17647067,9.741779,0.00076358096,-0.0003054324,0.0001527162,-632.0625,-238.27501,-607.96875,watch_2
26360163964739,0.18424734,-0.17647067,9.741779,0.00076358096,-0.0003054324,0.0001527162,-632.0625,-238.27501,-607.96875,watch_2
26360182606666,0.18424734,-0.17647067,9.741779,0.00076358096,-0.0003054324,0.0001527162,-631.4438,-239.64375,-606.0188,watch_2
26360192606614,0.18424734,-0.17647067,9.741779,0.00076358096,-0.0003054324,0.0001527162,-631.5188,-237.50626,-606.8063,watch_2
26360188733802,0.19381863,-0.17647067,9.75135,0.00076358096,-0.0003054324,0.0001527162,-631.5188,-237.50626,-606.8063,watch_2
26360183618698,0.19381863,-0.17647067,9.75135,0.00076358096,-0.0003054324,0.0001527162,-631.5188,-237.50626,-606.8063,watch_2
26360202606562,0.19381863,-0.17647067,9.75135,0.00076358096,-0.0003054324,0.0001527162,-631.3313,-235.78127,-607.6875,watch_2
26360212606510,0.19381863,-0.17647067,9.75135,0.00076358096,-0.0003054324,0.0001527162,-632.85004,-237.24376,-607.85626,watch_2
26360203240729,0.20338993,-0.16689938,9.756136,0.00076358096,-0.0003054324,0.0001527162,-632.85004,-237.24376,-607.85626,watch_2
26360208355833,0.20338993,-0.16689938,9.756136,0.00076358096,-0.0003054324,0.0001527162,-632.85004,-237.24376,-607.85626,watch_2
26360222606458,0.20338993,-0.16689938,9.756136,0.00076358096,-0.0003054324,0.0001527162,-632.2688,-237.3,-608.0813,watch_2
26360232606406,0.20338993,-0.16689938,9.756136,0.00076358096,-0.0003054324,0.0001527162,-631.1813,-238.78127,-605.47504,watch_2
26360228009844,0.18424734,-0.16689938,9.746565,-0.0004581486,0.0009162972,-0.0010690134,-631.1813,-238.78127,-605.47504,watch_2
26360222894739,0.18424734,-0.16689938,9.746565,-0.0004581486,0.0009162972,-0.0010690134,-631.1813,-238.78127,-605.47504,watch_2
26360242606354,0.18424734,-0.16689938,9.746565,-0.0004581486,0.0009162972,-0.0010690134,-632.15625,-236.2875,-608.4563,watch_2
26360252606302,0.18424734,-0.16689938,9.746565,-0.0004581486,0.0009162972,-0.0010690134,-632.10004,-237.45001,-606.73126,watch_2
26360247631823,0.18424734,-0.17168503,9.765707,-0.0004581486,0.0009162972,-0.0010690134,-632.10004,-237.45001,-606.73126,watch_2
26360242516719,0.18424734,-0.17168503,9.765707,-0.0004581486,-0.0003054324,0.0001527162,-632.10004,-237.45001,-606.73126,watch_2
26360262606250,0.18903299,-0.17647067,9.746565,-0.0004581486,-0.0003054324,0.0001527162,-632.04376,-236.71877,-607.8188,watch_2
26360272606198,0.18903299,-0.17647067,9.746565,-0.0004581486,-0.0003054324,0.0001527162,-632.04376,-236.71877,-607.8188,watch_2
26360267254844,0.18903299,-0.17647067,9.746565,-0.0004581486,-0.0003054324,0.0001527162,-632.04376,-236.71877,-607.8188,watch_2
26360262139739,0.18903299,-0.17647067,9.746565,-0.0004581486,-0.0003054324,0.0001527162,-632.04376,-236.71877,-607.8188,watch_2
26360282606146,0.18903299,-0.17647067,9.746565,-0.0004581486,-0.0003054324,0.0001527162,-631.1438,-238.33125,-606.2438,watch_2
26360292606094,0.18903299,-0.17647067,9.746565,-0.0004581486,-0.0003054324,0.0001527162,-632.9625,-238.2375,-608.5125,watch_2
26360286908802,0.18903299,-0.17168503,9.746565,-0.0004581486,-0.0003054324,-0.0010690134,-632.9625,-238.2375,-608.5125,watch_2
26360281793698,0.18903299,-0.17168503,9.746565,-0.0004581486,-0.0003054324,-0.0010690134,-632.9625,-238.2375,-608.5125,watch_2
26360302606041,0.18903299,-0.17168503,9.746565,-0.0004581486,-0.0003054324,-0.0010690134,-633.6188,-236.06252,-608.36255,watch_2
26360312605989,0.18903299,-0.17168503,9.746565,-0.0004581486,-0.0003054324,-0.0010690134,-631.575,-236.68126,-606.75,watch_2
26360301415729,0.1794617,-0.16689938,9.746565,-0.0004581486,-0.0015271619,-0.0010690134,-631.575,-236.68126,-606.75,watch_2
26360306530833,0.1794617,-0.16689938,9.746565,-0.0004581486,-0.0015271619,-0.0010690134,-631.575,-236.68126,-606.75,watch_2
26360322605937,0.1794617,-0.16689938,9.746565,-0.0004581486,-0.0015271619,-0.0010690134,-631.96875,-237.24376,-608.775,watch_2
26360332605885,0.1794617,-0.16689938,9.746565,-0.0004581486,-0.0015271619,-0.0010690134,-632.15625,-237.39375,-609.65625,watch_2
26360321069739,0.18903299,-0.16689938,9.736994,-0.0004581486,0.0009162972,-0.0010690134,-632.15625,-237.39375,-609.65625,watch_2
26360326184844,0.18903299,-0.16689938,9.736994,-0.0004581486,0.0009162972,-0.0010690134,-632.15625,-237.39375,-609.65625,watch_2
26360342605833,0.18903299,-0.16689938,9.736994,-0.0004581486,0.0009162972,-0.0010690134,-630.9563,-236.58751,-606.6938,watch_2
26360352605781,0.18903299,-0.16689938,9.736994,-0.0004581486,0.0009162972,-0.0010690134,-633.09375,-238.10626,-608.10004,watch_2
26360340692708,0.18424734,-0.17168503,9.756136,0.00076358096,0.0009162972,0.0001527162,-633.09375,-238.10626,-608.10004,watch_2
26360345807812,0.18424734,-0.17168503,9.756136,0.00076358096,0.0009162972,0.0001527162,-633.09375,-238.10626,-608.10004,watch_2
26360362605729,0.18424734,-0.17168503,9.756136,0.00076358096,0.0009162972,0.0001527162,-632.60626,-237.6,-609.11255,watch_2
26360372605677,0.18424734,-0.17168503,9.756136,0.00076358096,0.0009162972,0.0001527162,-631.8375,-238.8,-608.325,watch_2
26360360345729,0.18424734,-0.17168503,9.75135,0.00076358096,-0.0003054324,0.0001527162,-631.8375,-238.8,-608.325,watch_2
26360365460833,0.18424734,-0.17168503,9.75135,0.00076358096,-0.0003054324,0.0001527162,-631.8375,-238.8,-608.325,watch_2
26360382605625,0.18424734,-0.17168503,9.75135,0.00076358096,-0.0003054324,0.0001527162,-632.1375,-237.4125,-608.4938,watch_2
26360385083802,0.18424734,-0.16211374,9.746565,0.00076358096,-0.0003054324,0.0001527162,-632.9625,-237.15001,-606.4313,watch_2
26360392605573,0.18424734,-0.16211374,9.746565,0.00076358096,-0.0003054324,0.0001527162,-632.9625,-237.15001,-606.4313,watch_2
26360379968698,0.18424734,-0.16211374,9.746565,-0.0004581486,0.0009162972,-0.0010690134,-632.9625,-237.15001,-606.4313,watch_2
26360402605521,0.18424734,-0.16211374,9.746565,-0.0004581486,0.0009162972,-0.0010690134,-633.46875,-235.87502,-609.22504,watch_2
26360412605469,0.18424734,-0.16211374,9.746565,-0.0004581486,-0.0003054324,-0.0010690134,-633.075,-236.23126,-609.8813,watch_2
26360404705833,0.18903299,-0.16689938,9.75135,-0.0004581486,-0.0003054324,-0.0010690134,-633.075,-236.23126,-609.8813,watch_2
26360399590729,0.18903299,-0.16689938,9.75135,-0.0004581486,-0.0003054324,-0.0010690134,-633.075,-236.23126,-609.8813,watch_2
26360422605416,0.18903299,-0.16689938,9.75135,-0.0004581486,-0.0003054324,-0.0010690134,-633.1313,-236.81252,-609.3938,watch_2
26360432605364,0.18903299,-0.16689938,9.75135,-0.0004581486,-0.0003054324,-0.0010690134,-632.2125,-236.55,-609.45,watch_2
26360419244739,0.19381863,-0.18604197,9.736994,-0.0004581486,-0.0003054324,-0.0010690134,-632.2125,-236.55,-609.45,watch_2
26360424359844,0.19381863,-0.18604197,9.736994,-0.0004581486,-0.0003054324,-0.0010690134,-632.2125,-236.55,-609.45,watch_2
26360442605312,0.19381863,-0.18604197,9.736994,-0.0004581486,-0.0003054324,-0.0010690134,-632.8688,-235.96877,-608.28754,watch_2
26360452605260,0.19381863,-0.18604197,9.736994,-0.0004581486,-0.0003054324,-0.0010690134,-632.9438,-235.08751,-609.54376,watch_2
26360443982812,0.19381863,-0.16211374,9.756136,-0.0004581486,-0.0003054324,-0.0010690134,-632.9438,-235.08751,-609.54376,watch_2
26360438867708,0.19381863,-0.16211374,9.756136,0.00076358096,0.0009162972,0.0001527162,-632.9438,-235.08751,-609.54376,watch_2
26360462605208,0.19381863,-0.16211374,9.756136,0.00076358096,0.0009162972,0.0001527162,-633.48755,-235.85626,-610.2563,watch_2
26360472605156,0.19381863,-0.16211374,9.756136,0.00076358096,0.0009162972,0.0001527162,-633.46875,-235.87502,-609.22504,watch_2
26360463635833,0.18903299,-0.15732808,9.746565,0.00076358096,0.0009162972,0.0001527162,-633.46875,-235.87502,-609.22504,watch_2
26360458520729,0.18903299,-0.15732808,9.746565,-0.0004581486,0.0009162972,0.0001527162,-633.46875,-235.87502,-609.22504,watch_2
26360482605104,0.18903299,-0.15732808,9.746565,-0.0004581486,0.0009162972,0.0001527162,-634.96875,-235.93126,-609.54376,watch_2
26360492605052,0.18903299,-0.15732808,9.746565,-0.0004581486,0.0009162972,0.0001527162,-634.0875,-237.20625,-610.3313,watch_2
26360478143698,0.18903299,-0.15732808,9.746565,-0.0004581486,0.0009162972,0.0001527162,-634.0875,-237.20625,-610.3313,watch_2
26360483258802,0.19381863,-0.17168503,9.746565,-0.0004581486,0.0009162972,0.0001527162,-634.7625,-235.33125,-609.7125,watch_2
26360502605000,0.19381863,-0.17168503,9.746565,-0.0004581486,0.0009162972,0.0001527162,-634.7625,-235.33125,-609.7125,watch_2
26360502881823,0.18424734,-0.15732808,9.75135,-0.0004581486,0.0009162972,0.0001527162,-634.6875,-237.45001,-609.5063,watch_2
26360512604948,0.18424734,-0.15732808,9.75135,-0.0004581486,0.0009162972,0.0001527162,-634.6875,-237.45001,-609.5063,watch_2
26360497766719,0.18424734,-0.15732808,9.75135,0.00076358096,-0.0003054324,0.0001527162,-634.6875,-237.45001,-609.5063,watch_2
26360522604896,0.18424734,-0.15732808,9.75135,0.00076358096,-0.0003054324,0.0001527162,-634.575,-237.56252,-610.0688,watch_2
26360522534844,0.18424734,-0.17647067,9.741779,-0.0004581486,0.0009162972,0.0001527162,-633.22504,-237.99376,-607.8375,watch_2
26360517419739,0.18424734,-0.17647067,9.741779,-0.0004581486,0.0009162972,0.0001527162,-633.22504,-237.99376,-607.8375,watch_2
26360532604844,0.18424734,-0.17647067,9.741779,-0.0004581486,0.0009162972,0.0001527162,-633.22504,-237.99376,-607.8375,watch_2
26360542604791,0.18424734,-0.17647067,9.741779,-0.0004581486,0.0009162972,0.0001527162,-633.78754,-235.89375,-609.9938,watch_2
26360537042708,0.19381863,-0.17647067,9.756136,0.00076358096,-0.0003054324,0.0001527162,-633.78754,-235.89375,-609.9938,watch_2
26360552604739,0.19381863,-0.17647067,9.756136,0.00076358096,-0.0003054324,0.0001527162,-634.575,-237.88126,-608.5688,watch_2
26360542157812,0.19381863,-0.17647067,9.756136,0.00076358096,-0.0003054324,0.0001527162,-634.575,-237.88126,-608.5688,watch_2
26360562604687,0.19381863,-0.17647067,9.756136,0.00076358096,-0.0003054324,0.0001527162,-634.5563,-235.96877,-611.0813,watch_2
26360556695729,0.18903299,-0.17168503,9.741779,-0.0004581486,-0.0015271619,0.0001527162,-634.0875,-237.20625,-610.03125,watch_2
26360572604635,0.18903299,-0.17168503,9.741779,-0.0004581486,-0.0015271619,0.0001527162,-634.0875,-237.20625,-610.03125,watch_2
26360561810833,0.18903299,-0.17168503,9.741779,-0.0004581486,-0.0015271619,0.0001527162,-634.0875,-237.20625,-610.03125,watch_2
26360582604583,0.18903299,-0.17168503,9.741779,-0.0004581486,-0.0015271619,0.0001527162,-634.7625,-235.33125,-609.7125,watch_2
26360581433802,0.17467605,-0.16689938,9.756136,-0.0004581486,-0.0015271619,0.0001527162,-634.7625,-235.33125,-609.7125,watch_2
26360576318698,0.17467605,-0.16689938,9.756136,0.00076358096,0.0009162972,0.0001527162,-634.7625,-235.33125,-609.7125,watch_2
26360592604531,0.17467605,-0.16689938,9.756136,0.00076358096,0.0009162972,0.0001527162,-633.54376,-236.60626,-608.4375,watch_2
26360602604479,0.17467605,-0.16689938,9.756136,0.00076358096,0.0009162972,0.0001527162,-633.65625,-237.26251,-611.15625,watch_2
26360601056823,0.18424734,-0.18125631,9.746565,-0.0004581486,-0.0003054324,0.0001527162,-633.65625,-237.26251,-611.15625,watch_2
26360612604427,0.18424734,-0.18125631,9.746565,-0.0004581486,-0.0003054324,0.0001527162,-634.1813,-236.98126,-608.47504,watch_2
26360595941719,0.18424734,-0.18125631,9.746565,-0.0004581486,-0.0003054324,0.0001527162,-634.1813,-236.98126,-608.47504,watch_2
26360622604375,0.18424734,-0.18125631,9.746565,-0.0004581486,-0.0003054324,0.0001527162,-632.66254,-235.03127,-610.96875,watch_2
26360632604323,0.18903299,-0.17168503,9.756136,-0.0004581486,0.0009162972,0.0001527162,-635.41876,-235.68752,-610.35004,watch_2
26360620709844,0.18903299,-0.17168503,9.756136,-0.0004581486,0.0009162972,0.0001527162,-635.41876,-235.68752,-610.35004,watch_2
26360615594739,0.18424734,-0.18125631,9.746565,-0.0004581486,0.0009162972,0.0001527162,-635.41876,-235.68752,-610.35004,watch_2
26360642604271,0.18903299,-0.17168503,9.756136,-0.0004581486,0.0009162972,0.0001527162,-635.0813,-236.925,-609.45,watch_2
26360640332812,0.19860429,-0.16211374,9.736994,-0.0004581486,-0.0003054324,0.0001527162,-635.0813,-236.925,-609.45,watch_2
26360635217708,0.19860429,-0.16211374,9.736994,-0.0004581486,-0.0003054324,0.0001527162,-635.0813,-236.925,-609.45,watch_2
26360652604219,0.19860429,-0.16211374,9.736994,-0.0004581486,-0.0003054324,0.0001527162,-632.28754,-234.58125,-609.65625,watch_2
26360662604166,0.19860429,-0.16211374,9.736994,-0.0004581486,-0.0003054324,0.0001527162,-634.0125,-238.06876,-609.075,watch_2
26360659985833,0.19381863,-0.16689938,9.756136,-0.0004581486,-0.0003054324,-0.0010690134,-635.4563,-237.54376,-609.30005,watch_2
26360672604114,0.19381863,-0.16689938,9.756136,-0.0004581486,-0.0003054324,-0.0010690134,-635.4563,-237.54376,-609.30005,watch_2
26360654870729,0.19381863,-0.16689938,9.756136,-0.0004581486,-0.0003054324,-0.0010690134,-635.4563,-237.54376,-609.30005,watch_2
26360682604062,0.19381863,-0.16689938,9.756136,-0.0004581486,-0.0003054324,-0.0010690134,-633.65625,-236.00626,-610.40625,watch_2
26360679608802,0.19381863,-0.17168503,9.736994,-0.0004581486,-0.0003054324,0.0001527162,-634.125,-236.40001,-608.8125,watch_2
26360674493698,0.19381863,-0.17168503,9.736994,-0.0004581486,-0.0003054324,0.0001527162,-634.125,-236.40001,-608.8125,watch_2
26360692604010,0.19381863,-0.17168503,9.736994,-0.0004581486,-0.0003054324,0.0001527162,-634.125,-236.40001,-608.8125,watch_2
26360702603958,0.19381863,-0.17168503,9.736994,-0.0004581486,-0.0003054324,0.0001527162,-635.1188,-237.37502,-609.1313,watch_2
26360699261823,0.18903299,-0.17168503,9.741779,-0.0004581486,-0.0003054324,0.0001527162,-635.1188,-237.37502,-609.1313,watch_2
26360694146719,0.18903299,-0.17168503,9.741779,-0.0004581486,-0.0003054324,0.0001527162,-635.1188,-237.37502,-609.1313,watch_2
26360712603906,0.18903299,-0.17168503,9.741779,-0.0004581486,-0.0003054324,0.0001527162,-633.6188,-236.06252,-608.36255,watch_2
26360722603854,0.18903299,-0.17168503,9.741779,-0.0004581486,-0.0003054324,0.0001527162,-632.9625,-238.2375,-608.5125,watch_2
26360718884844,0.19381863,-0.17647067,9.756136,0.00076358096,0.0009162972,-0.0010690134,-632.9625,-238.2375,-608.5125,watch_2
26360713769739,0.19381863,-0.17647067,9.756136,0.00076358096,0.0009162972,-0.0010690134,-632.9625,-238.2375,-608.5125,watch_2
26360732603802,0.19381863,-0.17647067,9.756136,0.00076358096,0.0009162972,-0.0010690134,-633.8063,-234.76875,-609.8063,watch_2
26360742603750,0.19381863,-0.17647067,9.756136,0.00076358096,0.0009162972,-0.0010690134,-633.8063,-234.76875,-609.8063,watch_2
26360738507812,0.18903299,-0.17168503,9.756136,-0.0004581486,-0.0003054324,-0.0010690134,-633.8063,-234.76875,-609.8063,watch_2
26360733392708,0.18903299,-0.17168503,9.756136,-0.0004581486,-0.0003054324,-0.0010690134,-633.8063,-234.76875,-609.8063,watch_2
26360752603698,0.18903299,-0.17168503,9.756136,-0.0004581486,-0.0003054324,-0.0010690134,-633.2625,-236.70001,-608.98126,watch_2
26360762603646,0.18903299,-0.17168503,9.756136,-0.0004581486,-0.0003054324,-0.0010690134,-635.5125,-235.10626,-610.8375,watch_2
26360758160833,0.18424734,-0.16689938,9.741779,-0.0004581486,-0.0003054324,-0.0010690134,-635.5125,-235.10626,-610.8375,watch_2
26360753045729,0.18424734,-0.16689938,9.741779,-0.0004581486,0.0009162972,-0.0010690134,-634.2,-236.96251,-609.48755,watch_2
26360772603594,0.18424734,-0.16689938,9.741779,-0.0004581486,0.0009162972,-0.0010690134,-634.2,-236.96251,-609.48755,watch_2
26360782603541,0.18424734,-0.16689938,9.741779,-0.0004581486,0.0009162972,-0.0010690134,-633.67505,-235.21877,-608.15625,watch_2
26360777783802,0.19860429,-0.16689938,9.75135,0.00076358096,0.0009162972,0.0001527162,-633.67505,-235.21877,-608.15625,watch_2
26360772668698,0.19860429,-0.16689938,9.75135,0.00076358096,0.0009162972,0.0001527162,-633.67505,-235.21877,-608.15625,watch_2
26360792603489,0.19860429,-0.16689938,9.75135,0.00076358096,0.0009162972,0.0001527162,-633.67505,-236.475,-608.60626,watch_2
26360802603437,0.19860429,-0.16689938,9.75135,0.00076358096,0.0009162972,0.0001527162,-633.2625,-236.70001,-609.2625,watch_2
26360797436823,0.20817557,-0.18125631,9.746565,0.00076358096,0.0009162972,0.0001527162,-633.2625,-236.70001,-609.2625,watch_2
26360792321719,0.20817557,-0.18125631,9.746565,-0.0004581486,-0.0015271619,-0.0010690134,-633.2625,-236.70001,-609.2625,watch_2
26360812603385,0.20817557,-0.18125631,9.746565,-0.0004581486,-0.0015271619,-0.0010690134,-633.825,-236.32501,-609.9563,watch_2
26360822603333,0.20817557,-0.18125631,9.746565,-0.0004581486,-0.0015271619,-0.0010690134,-633.22504,-236.41876,-608.5688,watch_2
26360817059844,0.18903299,-0.17168503,9.75135,0.00076358096,0.0009162972,-0.0010690134,-633.22504,-236.41876,-608.5688,watch_2
26360811944739,0.18903299,-0.17168503,9.75135,0.00076358096,0.0009162972,-0.0010690134,-633.22504,-236.41876,-608.5688,watch_2
26360832603281,0.18903299,-0.17168503,9.75135,0.00076358096,0.0009162972,-0.0010690134,-633.9938,-235.2375,-609.6375,watch_2
26360842603229,0.18903299,-0.17168503,9.75135,0.00076358096,0.0009162972,-0.0010690134,-633.46875,-235.87502,-609.22504,watch_2
26360836682812,0.18424734,-0.15732808,9.746565,0.00076358096,0.0021380268,0.0001527162,-633.2438,-236.40001,-610.03125,watch_2
26360831567708,0.18424734,-0.15732808,9.746565,0.00076358096,0.0021380268,0.0001527162,-633.2438,-236.40001,-610.03125,watch_2
26360852603177,0.18424734,-0.15732808,9.746565,0.00076358096,0.0021380268,0.0001527162,-633.2438,-236.40001,-610.03125,watch_2
26360862603125,0.18424734,-0.15732808,9.746565,0.00076358096,0.0021380268,0.0001527162,-634.5563,-235.9875,-610.35004,watch_2
26360856335833,0.18424734,-0.17168503,9.746565,-0.0004581486,-0.0003054324,0.0001527162,-634.5563,-235.9875,-610.35004,watch_2
26360851220729,0.18424734,-0.17168503,9.746565,-0.0004581486,-0.0003054324,0.0001527162,-634.5563,-235.9875,-610.35004,watch_2
26360872603073,0.18424734,-0.17168503,9.746565,-0.0004581486,-0.0003054324,0.0001527162,-634.16254,-236.6625,-609.525,watch_2
26360875958802,0.18424734,-0.17647067,9.741779,-0.0004581486,-0.0003054324,0.0001527162,-633.9,-235.8,-608.7,watch_2
26360870843698,0.18424734,-0.17647067,9.741779,-0.0004581486,-0.0003054324,0.0001527162,-633.9,-235.8,-608.7,watch_2
26360882603021,0.18424734,-0.17647067,9.741779,-0.0004581486,-0.0003054324,0.0001527162,-633.9,-235.8,-608.7,watch_2
26360892602969,0.18424734,-0.17647067,9.741779,-0.0004581486,-0.0003054324,0.0001527162,-634.95,-235.95001,-608.0813,watch_2
26360902602916,0.19381863,-0.17647067,9.75135,-0.0004581486,-0.0003054324,0.0001527162,-635.6813,-236.85,-610.40625,watch_2
26360895611823,0.19381863,-0.17647067,9.75135,-0.0004581486,-0.0003054324,0.0001527162,-635.6813,-236.85,-610.40625,watch_2
26360890496719,0.19381863,-0.17647067,9.75135,-0.0004581486,-0.0003054324,0.0001527162,-635.6813,-236.85,-610.40625,watch_2
26360912602864,0.19381863,-0.17647067,9.75135,-0.0004581486,-0.0003054324,0.0001527162,-634.48126,-236.85,-609.3938,watch_2
26360922602812,0.19381863,-0.17647067,9.75135,-0.0004581486,-0.0003054324,0.0001527162,-633.5063,-236.32501,-608.4563,watch_2
26360910119739,0.20817557,-0.17647067,9.75135,-0.0004581486,-0.0003054324,0.0001527162,-633.5063,-236.32501,-608.4563,watch_2
26360915234844,0.20817557,-0.17647067,9.75135,-0.0004581486,-0.0003054324,0.0001527162,-633.5063,-236.32501,-608.4563,watch_2
26360932602760,0.20817557,-0.17647067,9.75135,-0.0004581486,-0.0003054324,0.0001527162,-633.41254,-235.6125,-608.0813,watch_2
26360942602708,0.1794617,-0.16689938,9.75135,-0.0004581486,-0.0003054324,0.0001527162,-634.8188,-237.31876,-609.3938,watch_2
26360934857812,0.1794617,-0.16689938,9.75135,-0.0004581486,-0.0003054324,0.0001527162,-634.8188,-237.31876,-609.3938,watch_2
26360929742708,0.1794617,-0.16689938,9.75135,-0.0004581486,0.0009162972,0.0001527162,-634.8188,-237.31876,-609.3938,watch_2
26360952602656,0.1794617,-0.16689938,9.75135,-0.0004581486,0.0009162972,0.0001527162,-633.2438,-237.975,-608.5688,watch_2
26360962602604,0.1794617,-0.16689938,9.75135,-0.0004581486,0.0009162972,0.0001527162,-632.53125,-237.05626,-607.6875,watch_2
26360954510833,0.17467605,-0.17647067,9.75135,0.00076358096,-0.0003054324,-0.0010690134,-632.53125,-237.05626,-607.6875,watch_2
26360949395729,0.17467605,-0.17647067,9.75135,0.00076358096,-0.0003054324,-0.0010690134,-632.53125,-237.05626,-607.6875,watch_2
26360972602552,0.17467605,-0.17647067,9.75135,0.00076358096,-0.0003054324,-0.0010690134,-634.40625,-236.13751,-609.45,watch_2
26360982602500,0.19860429,-0.18125631,9.741779,0.00076358096,-0.0003054324,-0.0010690134,-633.0,-235.83751,-608.0063,watch_2
26360974133802,0.19860429,-0.18125631,9.741779,0.00076358096,-0.0003054324,-0.0010690134,-633.0,-235.83751,-608.0063,watch_2
26360969018698,0.19860429,-0.18125631,9.741779,-0.0004581486,0.0009162972,0.0001527162,-633.0,-235.83751,-608.0063,watch_2
26360992602448,0.19860429,-0.18125631,9.741779,-0.0004581486,0.0009162972,0.0001527162,-634.53754,-237.26251,-610.0875,watch_2
26361002602396,0.19860429,-0.18125631,9.741779,-0.0004581486,0.0009162972,0.0001527162,-634.42505,-239.1,-609.3188,watch_2
26360988671719,0.19860429,-0.18125631,9.741779,-0.0004581486,-0.0003054324,0.0001527162,-634.42505,-239.1,-609.3188,watch_2
26360993786823,0.19860429,-0.18125631,9.746565,-0.0004581486,-0.0003054324,0.0001527162,-634.42505,-239.1,-609.3188,watch_2
26361012602344,0.19860429,-0.18125631,9.746565,-0.0004581486,-0.0003054324,0.0001527162,-633.9,-236.90627,-610.2,watch_2
26361022602291,0.19860429,-0.18125631,9.746565,-0.0004581486,-0.0003054324,0.0001527162,-634.125,-237.4875,-610.3125,watch_2
26361008294739,0.18903299,-0.17168503,9.75135,-0.0004581486,-0.0003054324,-0.0010690134,-634.125,-237.4875,-610.3125,watch_2
26361013409844,0.18903299,-0.17168503,9.75135,-0.0004581486,-0.0003054324,-0.0010690134,-634.125,-237.4875,-610.3125,watch_2
26361032602239,0.18903299,-0.17168503,9.75135,-0.0004581486,-0.0003054324,-0.0010690134,-634.05005,-235.96877,-608.1188,watch_2
26361033062812,0.19381863,-0.17168503,9.756136,0.00076358096,-0.0003054324,0.0001527162,-633.1875,-238.81876,-608.7563,watch_2
26361027947708,0.19381863,-0.17168503,9.756136,0.00076358096,-0.0003054324,0.0001527162,-633.1875,-238.81876,-608.7563,watch_2
26361042602187,0.19381863,-0.17168503,9.756136,0.00076358096,-0.0003054324,0.0001527162,-633.1875,-238.81876,-608.7563,watch_2
26361052602135,0.19381863,-0.17168503,9.756136,0.00076358096,-0.0003054324,0.0001527162,-635.6813,-236.85,-610.10626,watch_2
26361052685833,0.19381863,-0.16689938,9.736994,-0.0004581486,0.0009162972,0.0001527162,-633.60004,-236.86876,-609.86255,watch_2
26361047570729,0.19381863,-0.16689938,9.736994,-0.0004581486,0.0009162972,0.0001527162,-633.60004,-236.86876,-609.86255,watch_2
26361062602083,0.19381863,-0.16689938,9.736994,-0.0004581486,0.0009162972,0.0001527162,-633.60004,-236.86876,-609.86255,watch_2
26361072602031,0.19381863,-0.16689938,9.736994,-0.0004581486,0.0009162972,0.0001527162,-635.325,-236.55,-608.9438,watch_2
26361072308802,0.19381863,-0.16211374,9.756136,-0.0004581486,0.0009162972,0.0001527162,-634.23755,-237.71251,-607.3875,watch_2
26361082601979,0.19381863,-0.16211374,9.756136,-0.0004581486,0.0009162972,0.0001527162,-634.23755,-237.71251,-607.3875,watch_2
26361067193698,0.19381863,-0.16211374,9.756136,0.00076358096,0.0009162972,0.0001527162,-634.23755,-237.71251,-607.3875,watch_2
26361092601927,0.19381863,-0.16211374,9.756136,0.00076358096,0.0009162972,0.0001527162,-634.65,-237.00002,-610.275,watch_2
26361091961823,0.18424734,-0.17168503,9.75135,-0.0004581486,-0.0003054324,0.0001527162,-632.5875,-237.61876,-608.0813,watch_2
26361086846719,0.18424734,-0.17168503,9.75135,-0.0004581486,-0.0003054324,0.0001527162,-632.5875,-237.61876,-608.0813,watch_2
26361102601875,0.18424734,-0.17168503,9.75135,-0.0004581486,-0.0003054324,0.0001527162,-632.5875,-237.61876,-608.0813,watch_2
26361112601823,0.18424734,-0.17168503,9.75135,-0.0004581486,-0.0003054324,0.0001527162,-633.9,-236.90627,-610.2,watch_2
26361106469739,0.19860429,-0.17168503,9.741779,-0.0004581486,-0.0015271619,0.0001527162,-633.9,-236.90627,-610.2,watch_2
26361111584844,0.19860429,-0.17168503,9.741779,-0.0004581486,-0.0015271619,0.0001527162,-633.9,-236.90627,-610.2,watch_2
26361122601771,0.19860429,-0.17168503,9.741779,-0.0004581486,-0.0015271619,0.0001527162,-635.1188,-237.37502,-608.6813,watch_2
26361132601719,0.19860429,-0.17168503,9.741779,-0.0004581486,-0.0015271619,0.0001527162,-632.5125,-236.58751,-609.48755,watch_2
26361131237812,0.19381863,-0.18604197,9.736994,0.00076358096,-0.0003054324,0.0001527162,-634.80005,-237.35626,-607.9313,watch_2
26361126122708,0.19381863,-0.18604197,9.736994,0.00076358096,-0.0003054324,0.0001527162,-634.80005,-237.35626,-607.9313,watch_2
26361142601666,0.19381863,-0.18604197,9.736994,0.00076358096,-0.0003054324,0.0001527162,-634.80005,-237.35626,-607.9313,watch_2
26361152601614,0.19381863,-0.18604197,9.736994,0.00076358096,-0.0003054324,0.0001527162,-633.84375,-235.05,-610.21875,watch_2
26361150860833,0.19381863,-0.17168503,9.741779,-0.0004581486,-0.0003054324,0.0001527162,-633.84375,-235.05,-610.21875,watch_2
26361145745729,0.19381863,-0.17168503,9.741779,-0.0004581486,-0.0003054324,0.0001527162,-633.84375,-235.05,-610.21875,watch_2
26361162601562,0.19381863,-0.17168503,9.741779,-0.0004581486,-0.0003054324,0.0001527162,-635.0063,-237.7875,-608.4938,watch_2
26361172601510,0.19381863,-0.17168503,9.741779,-0.0004581486,-0.0003054324,0.0001527162,-634.65,-237.01875,-609.54376,watch_2
26361165368698,0.19381863,-0.17168503,9.741779,0.00076358096,0.0009162972,0.0001527162,-634.65,-237.01875,-609.54376,watch_2
26361182601458,0.19381863,-0.17168503,9.741779,0.00076358096,0.0009162972,0.0001527162,-631.42505,-237.75002,-608.3813,watch_2
26361170483802,0.18424734,-0.17647067,9.746565,0.00076358096,0.0009162972,0.0001527162,-631.42505,-237.75002,-608.3813,watch_2
26361192601406,0.18424734,-0.17647067,9.746565,0.00076358096,0.0009162972,0.0001527162,-632.1375,-237.90001,-605.3813,watch_2
26361190136823,0.1794617,-0.17647067,9.736994,0.00076358096,0.0021380268,0.0001527162,-632.1375,-237.90001,-605.3813,watch_2
26361185021719,0.1794617,-0.17647067,9.736994,0.00076358096,0.0021380268,0.0001527162,-632.1375,-237.90001,-605.3813,watch_2
26361202601354,0.1794617,-0.17647067,9.736994,0.00076358096,0.0021380268,0.0001527162,-633.0188,-237.73126,-605.9438,watch_2
26361212601302,0.1794617,-0.17647067,9.736994,0.00076358096,0.0021380268,0.0001527162,-631.10626,-238.03127,-606.28125,watch_2
26361209759844,0.16510476,-0.16211374,9.746565,0.00076358096,-0.0003054324,0.0001527162,-631.10626,-238.03127,-606.28125,watch_2
26361204644739,0.16510476,-0.16211374,9.746565,0.00076358096,-0.0003054324,0.0001527162,-631.10626,-238.03127,-606.28125,watch_2
26361222601250,0.16510476,-0.16211374,9.746565,0.00076358096,-0.0003054324,0.0001527162,-635.5125,-238.59377,-607.0125,watch_2
26361232601198,0.16510476,-0.16211374,9.746565,0.00076358096,-0.0003054324,0.0001527162,-632.15625,-237.8625,-607.42505,watch_2
26361224297708,0.19381863,-0.17647067,9.736994,-0.0004581486,-0.0015271619,0.0001527162,-633.8063,-236.3625,-608.79376,watch_2
26361229412812,0.19381863,-0.17647067,9.736994,-0.0004581486,-0.0015271619,0.0001527162,-633.8063,-236.3625,-608.79376,watch_2
26361242601146,0.19381863,-0.17647067,9.736994,-0.0004581486,-0.0015271619,0.0001527162,-633.8063,-236.3625,-608.79376,watch_2
26361252601094,0.19381863,-0.17168503,9.746565,-0.0004581486,-0.0015271619,0.0001527162,-633.7125,-236.75626,-609.3188,watch_2
26361249035833,0.19381863,-0.17168503,9.746565,-0.0004581486,-0.0027488915,0.0001527162,-633.7125,-236.75626,-609.3188,watch_2
26361243920729,0.19381863,-0.17168503,9.746565,-0.0004581486,-0.0027488915,0.0001527162,-633.97504,-236.53127,-608.34375,watch_2
26361262601041,0.19381863,-0.17168503,9.746565,-0.0004581486,-0.0027488915,0.0001527162,-633.97504,-236.53127,-608.34375,watch_2
26361272600989,0.20338993,-0.16689938,9.746565,-0.0004581486,-0.0027488915,0.0001527162,-630.41254,-237.1125,-605.7,watch_2
26361268658802,0.20338993,-0.16689938,9.746565,-0.0004581486,-0.0003054324,0.0001527162,-630.41254,-237.1125,-605.7,watch_2
26361263543698,0.20338993,-0.16689938,9.746565,-0.0004581486,-0.0003054324,0.0001527162,-632.1188,-239.34377,-604.66876,watch_2
26361282600937,0.20338993,-0.16689938,9.746565,-0.0004581486,-0.0003054324,0.0001527162,-628.275,-239.70001,-604.3313,watch_2
26361292600885,0.19381863,-0.17168503,9.741779,-0.0004581486,-0.0003054324,0.0001527162,-628.275,-239.70001,-604.3313,watch_2
26361283196719,0.19381863,-0.17168503,9.741779,0.00076358096,0.0009162972,0.0001527162,-629.66254,-238.57501,-605.04376,watch_2
26361302600833,0.19381863,-0.17168503,9.741779,0.00076358096,0.0009162972,0.0001527162,-629.66254,-238.57501,-605.04376,watch_2
26361288311823,0.1794617,-0.17168503,9.741779,-0.0004581486,0.0009162972,0.0001527162,-628.6875,-236.79376,-603.35626,watch_2
26361332600677,0.1794617,-0.17647067,9.75135,-0.0004581486,0.0009162972,0.0001527162,-629.90625,-239.45625,-605.41876,watch_2
26361312600781,0.1794617,-0.17168503,9.741779,-0.0004581486,0.0009162972,0.0001527162,-629.66254,-238.57501,-605.04376,watch_2
26361327588802,0.1794617,-0.17647067,9.75135,0.00076358096,-0.0003054324,0.0001527162,-629.90625,-239.45625,-605.41876,watch_2
26361307934844,0.1794617,-0.17168503,9.741779,-0.0004581486,0.0009162972,0.0001527162,-629.66254,-238.57501,-605.04376,watch_2
26361322473698,0.1794617,-0.17647067,9.75135,0.00076358096,-0.0003054324,0.0001527162,-631.9313,-237.28127,-606.5813,watch_2
26361302819739,0.1794617,-0.17168503,9.741779,-0.0004581486,0.0009162972,0.0001527162,-628.6875,-236.79376,-603.35626,watch_2
26361342600625,0.1794617,-0.17647067,9.75135,0.00076358096,-0.0003054324,0.0001527162,-631.9313,-237.28127,-606.5813,watch_2
26361322600729,0.1794617,-0.17647067,9.75135,0.00076358096,-0.0003054324,0.0001527162,-631.9313,-237.28127,-606.5813,watch_2
26361352600573,0.17467605,-0.18125631,9.741779,0.00076358096,-0.0003054324,0.0001527162,-630.48755,-236.55,-605.625,watch_2
26361347210833,0.17467605,-0.18125631,9.741779,-0.0004581486,-0.0015271619,-0.0010690134,-630.48755,-236.55,-605.625,watch_2
26361342095729,0.17467605,-0.18125631,9.741779,-0.0004581486,-0.0015271619,-0.0010690134,-630.48755,-236.55,-605.625,watch_2
26361362600521,0.17467605,-0.18125631,9.741779,-0.0004581486,-0.0015271619,-0.0010690134,-631.5188,-236.41876,-605.025,watch_2
26361372600469,0.17467605,-0.18125631,9.741779,-0.0004581486,-0.0015271619,-0.0010690134,-632.8688,-236.43752,-606.0563,watch_2
26361366864844,0.18903299,-0.17168503,9.75135,-0.0004581486,-0.0015271619,-0.0010690134,-632.8688,-236.43752,-606.0563,watch_2
26361361749739,0.18903299,-0.17168503,9.75135,-0.0004581486,-0.0015271619,0.0001527162,-632.8688,-236.43752,-606.0563,watch_2
26361382600416,0.18903299,-0.17168503,9.75135,-0.0004581486,-0.0015271619,0.0001527162,-634.59375,-236.7375,-608.8313,watch_2
26361392600364,0.18903299,-0.17168503,9.75135,-0.0004581486,-0.0015271619,0.0001527162,-632.1188,-237.43126,-607.7625,watch_2
26361386486823,0.19381863,-0.16689938,9.736994,-0.0004581486,0.0009162972,0.0001527162,-632.1188,-237.43126,-607.7625,watch_2
26361381371719,0.19381863,-0.16689938,9.736994,-0.0004581486,0.0009162972,0.0001527162,-632.1188,-237.43126,-607.7625,watch_2
26361402600312,0.19381863,-0.16689938,9.736994,-0.0004581486,0.0009162972,0.0001527162,-632.1188,-237.43126,-607.7625,watch_2
26361412600260,0.19381863,-0.16689938,9.736994,-0.0004581486,0.0009162972,0.0001527162,-630.60004,-237.24376,-607.0125,watch_2
26361400994739,0.1794617,-0.18125631,9.741779,0.00076358096,0.0021380268,0.0001527162,-630.60004,-237.24376,-607.0125,watch_2
26361406109844,0.1794617,-0.18125631,9.741779,0.00076358096,0.0021380268,0.0001527162,-630.60004,-237.24376,-607.0125,watch_2
26361422600208,0.1794617,-0.18125631,9.741779,0.00076358096,0.0021380268,0.0001527162,-634.96875,-237.0375,-610.3125,watch_2
26361432600156,0.1794617,-0.18125631,9.741779,0.00076358096,0.0021380268,0.0001527162,-632.4563,-236.32501,-608.1938,watch_2
26361425763802,0.17467605,-0.16211374,9.746565,-0.0004581486,0.0009162972,-0.0010690134,-632.4563,-236.32501,-608.1938,watch_2
26361420648698,0.17467605,-0.16211374,9.746565,-0.0004581486,0.0009162972,-0.0010690134,-632.4563,-236.32501,-608.1938,watch_2
26361442600104,0.17467605,-0.16211374,9.746565,-0.0004581486,0.0009162972,-0.0010690134,-631.575,-236.34377,-608.9625,watch_2
26361452600052,0.17467605,-0.16211374,9.746565,-0.0004581486,0.0009162972,-0.0010690134,-633.4313,-235.59377,-609.2438,watch_2
26361445385833,0.18903299,-0.16689938,9.746565,-0.0004581486,-0.0003054324,-0.0010690134,-633.4313,-235.59377,-609.2438,watch_2
26361462600000,0.18903299,-0.16689938,9.746565,-0.0004581486,-0.0003054324,-0.0010690134,-634.5188,-237.3,-608.625,watch_2
26361440270729,0.18903299,-0.16689938,9.746565,-0.0004581486,-0.0003054324,-0.0010690134,-633.4313,-235.59377,-609.2438,watch_2
26361472599948,0.18903299,-0.16689938,9.746565,-0.0004581486,-0.0003054324,-0.0010690134,-634.0875,-235.93126,-610.0125,watch_2
26361465039844,0.18903299,-0.17168503,9.75135,-0.0004581486,-0.0003054324,-0.0010690134,-634.0875,-235.93126,-610.0125,watch_2
26361482599896,0.18903299,-0.17168503,9.75135,-0.0004581486,-0.0015271619,0.0001527162,-631.875,-236.55,-607.66876,watch_2
26361459924739,0.18903299,-0.17168503,9.75135,-0.0004581486,-0.0015271619,0.0001527162,-631.875,-236.55,-607.66876,watch_2
26361492599844,0.18903299,-0.17168503,9.75135,-0.0004581486,0.0009162972,0.0001527162,-634.5,-237.3,-608.34375,watch_2
26361479547708,0.18903299,-0.17168503,9.75135,-0.0004581486,0.0009162972,0.0001527162,-634.5,-237.3,-608.34375,watch_2
26361484662812,0.19860429,-0.17168503,9.732208,-0.0004581486,0.0009162972,0.0001527162,-634.5,-237.3,-608.34375,watch_2
26361502599791,0.19860429,-0.17168503,9.732208,-0.0004581486,0.0009162972,0.0001527162,-634.53754,-236.00626,-609.3375,watch_2
26361512599739,0.19381863,-0.17647067,9.746565,-0.0004581486,0.0009162972,0.0001527162,-632.7,-235.8,-608.41876,watch_2
26361499169739,0.19381863,-0.17647067,9.746565,0.00076358096,0.0009162972,0.0001527162,-632.7,-235.8,-608.41876,watch_2
26361504284844,0.19381863,-0.17647067,9.746565,0.00076358096,0.0009162972,0.0001527162,-632.7,-235.8,-608.41876,watch_2
26361522599687,0.19381863,-0.17647067,9.746565,0.00076358096,0.0009162972,0.0001527162,-634.8375,-237.31876,-609.67505,watch_2
26361532599635,0.18424734,-0.17647067,9.736994,0.00076358096,0.0009162972,0.0001527162,-633.54376,-236.58751,-609.16876,watch_2
26361523938802,0.18424734,-0.17647067,9.736994,0.00076358096,0.0009162972,0.0001527162,-633.54376,-236.58751,-609.16876,watch_2
26361518823698,0.18424734,-0.17647067,9.736994,-0.0004581486,0.0009162972,0.0001527162,-633.54376,-236.58751,-609.16876,watch_2
26361542599583,0.18424734,-0.17647067,9.736994,-0.0004581486,0.0009162972,0.0001527162,-635.9625,-236.90627,-608.98126,watch_2
26361552599531,0.18424734,-0.17647067,9.736994,-0.0004581486,0.0009162972,0.0001527162,-633.6188,-237.31876,-608.66254,watch_2
26361538445729,0.1794617,-0.17647067,9.741779,-0.0004581486,-0.0003054324,0.0001527162,-633.6188,-237.31876,-608.66254,watch_2
26361543560833,0.1794617,-0.17647067,9.741779,-0.0004581486,-0.0003054324,0.0001527162,-633.6188,-237.31876,-608.66254,watch_2
26361562599479,0.1794617,-0.17647067,9.741779,-0.0004581486,-0.0003054324,0.0001527162,-633.9938,-234.90001,-611.41876,watch_2
26361572599427,0.19860429,-0.17168503,9.75135,-0.0004581486,-0.0015271619,-0.0010690134,-635.17505,-237.95625,-607.91254,watch_2
26361563214844,0.19860429,-0.17168503,9.75135,-0.0004581486,-0.0015271619,-0.0010690134,-635.17505,-237.95625,-607.91254,watch_2
26361558099739,0.19860429,-0.17168503,9.75135,-0.0004581486,-0.0015271619,-0.0010690134,-635.17505,-237.95625,-607.91254,watch_2
26361582599375,0.19860429,-0.17168503,9.75135,-0.0004581486,-0.0015271619,-0.0010690134,-634.6313,-238.29376,-608.98126,watch_2
26361592599323,0.19860429,-0.17168503,9.75135,-0.0004581486,-0.0003054324,0.0001527162,-635.98126,-236.90627,-609.41254,watch_2
26361577722708,0.19860429,-0.17168503,9.75135,-0.0004581486,-0.0003054324,0.0001527162,-635.98126,-236.90627,-609.41254,watch_2
26361582837812,0.19860429,-0.17647067,9.736994,-0.0004581486,-0.0003054324,0.0001527162,-635.98126,-236.90627,-609.41254,watch_2
26361602599271,0.19860429,-0.17647067,9.736994,-0.0004581486,-0.0003054324,0.0001527162,-633.7688,-235.9125,-609.54376,watch_2
26361612599219,0.19860429,-0.17647067,9.736994,0.00076358096,0.0009162972,0.0001527162,-634.5,-235.725,-609.35626,watch_2
26361597344739,0.19860429,-0.17647067,9.736994,0.00076358096,0.0009162972,0.0001527162,-634.5,-235.725,-609.35626,watch_2
26361602459844,0.19381863,-0.18604197,9.741779,0.00076358096,0.0009162972,0.0001527162,-634.5,-235.725,-609.35626,watch_2
26361622599166,0.19381863,-0.18604197,9.741779,0.00076358096,0.0009162972,0.0001527162,-634.5188,-237.28127,-609.0563,watch_2
26361622113802,0.18903299,-0.15732808,9.732208,0.00076358096,0.0009162972,0.0001527162,-633.0563,-236.25002,-609.15,watch_2
26361616998698,0.18903299,-0.15732808,9.732208,0.00076358096,0.0009162972,0.0001527162,-633.0563,-236.25002,-609.15,watch_2
26361632599114,0.18903299,-0.15732808,9.732208,0.00076358096,0.0009162972,0.0001527162,-633.0563,-236.25002,-609.15,watch_2
26361642599062,0.18903299,-0.15732808,9.732208,0.00076358096,0.0009162972,0.0001527162,-634.0125,-235.21877,-610.0875,watch_2
26361636620729,0.18903299,-0.16211374,9.746565,0.00076358096,0.0009162972,0.0001527162,-633.91876,-235.78127,-609.4313,watch_2
26361641735833,0.18903299,-0.16211374,9.746565,0.00076358096,0.0009162972,0.0001527162,-633.91876,-235.78127,-609.4313,watch_2
26361652599010,0.18903299,-0.16211374,9.746565,0.00076358096,0.0009162972,0.0001527162,-633.91876,-235.78127,-609.4313,watch_2
26361662598958,0.18903299,-0.16211374,9.746565,0.00076358096,0.0009162972,0.0001527162,-634.875,-234.91876,-609.91876,watch_2
26361661389844,0.18903299,-0.18604197,9.736994,-0.0004581486,-0.0015271619,0.0001527162,-634.3688,-235.85626,-609.1875,watch_2
26361672598906,0.18903299,-0.18604197,9.736994,-0.0004581486,-0.0015271619,0.0001527162,-634.3688,-235.85626,-609.1875,watch_2
26361656274739,0.18903299,-0.18604197,9.736994,-0.0004581486,-0.0015271619,0.0001527162,-634.3688,-235.85626,-609.1875,watch_2
26361682598854,0.18903299,-0.18604197,9.736994,-0.0004581486,-0.0015271619,0.0001527162,-635.8313,-236.71877,-610.29376,watch_2
26361681012812,0.19860429,-0.17647067,9.746565,-0.0004581486,-0.0015271619,0.0001527162,-633.73126,-236.7375,-610.05005,watch_2
26361675897708,0.19860429,-0.17647067,9.746565,-0.0004581486,-0.0015271619,0.0001527162,-633.73126,-236.7375,-610.05005,watch_2
26361692598802,0.19860429,-0.17647067,9.746565,-0.0004581486,-0.0015271619,0.0001527162,-633.73126,-236.7375,-610.05005,watch_2
26361702598750,0.19860429,-0.17647067,9.746565,-0.0004581486,-0.0015271619,0.0001527162,-632.325,-235.35,-606.825,watch_2
26361700665833,0.19860429,-0.17168503,9.746565,-0.0004581486,-0.0015271619,0.0001527162,-632.325,-235.35,-606.825,watch_2
26361695550729,0.19860429,-0.17168503,9.746565,0.00076358096,-0.0003054324,0.0001527162,-632.325,-235.35,-606.825,watch_2
26361712598698,0.19860429,-0.17168503,9.746565,0.00076358096,-0.0003054324,0.0001527162,-632.1375,-237.88126,-606.41254,watch_2
26361722598646,0.19860429,-0.17168503,9.746565,0.00076358096,-0.0003054324,0.0001527162,-633.2063,-238.03127,-606.075,watch_2
26361720288802,0.18903299,-0.17168503,9.736994,0.00076358096,-0.0003054324,0.0001527162,-633.2063,-238.03127,-606.075,watch_2
26361715173698,0.18903299,-0.17168503,9.736994,-0.0004581486,0.0009162972,0.0001527162,-633.2063,-238.03127,-606.075,watch_2
26361732598594,0.18903299,-0.17168503,9.736994,-0.0004581486,0.0009162972,0.0001527162,-631.5563,-238.27501,-604.7063,watch_2
26361742598541,0.18903299,-0.17168503,9.736994,-0.0004581486,0.0009162972,0.0001527162,-632.15625,-237.8625,-607.42505,watch_2
26361734796719,0.19381863,-0.17647067,9.75135,0.00076358096,0.0021380268,0.0001527162,-632.15625,-237.8625,-607.42505,watch_2
26361739911823,0.19381863,-0.17647067,9.75135,0.00076358096,0.0021380268,0.0001527162,-630.54376,-239.68126,-605.60626,watch_2
26361752598489,0.19381863,-0.17647067,9.75135,0.00076358096,0.0021380268,0.0001527162,-630.54376,-239.68126,-605.60626,watch_2
26361762598437,0.19381863,-0.17647067,9.75135,0.00076358096,0.0021380268,0.0001527162,-631.3313,-236.26875,-604.875,watch_2
26361759564844,0.1794617,-0.17168503,9.741779,0.00076358096,0.0021380268,0.0001527162,-631.3313,-236.26875,-604.875,watch_2
26361772598385,0.1794617,-0.17168503,9.741779,-0.0004581486,-0.0003054324,-0.0010690134,-632.79376,-239.81252,-606.15,watch_2
26361754449739,0.1794617,-0.17168503,9.741779,-0.0004581486,-0.0003054324,-0.0010690134,-632.79376,-239.81252,-606.15,watch_2
26361782598333,0.1794617,-0.17168503,9.741779,-0.0004581486,-0.0003054324,-0.0010690134,-630.91876,-240.43126,-605.28754,watch_2
26361774072708,0.1794617,-0.17168503,9.741779,-0.0004581486,-0.0003054324,0.0001527162,-630.91876,-240.43126,-605.28754,watch_2
26361792598281,0.18903299,-0.17168503,9.746565,-0.0004581486,-0.0003054324,0.0001527162,-633.2625,-238.27501,-608.25,watch_2
26361779187812,0.18903299,-0.17168503,9.746565,-0.0004581486,-0.0003054324,0.0001527162,-633.2625,-238.27501,-608.25,watch_2
26361802598229,0.18903299,-0.17168503,9.746565,-0.0004581486,-0.0003054324,0.0001527162,-630.22504,-238.06876,-606.3188,watch_2
26361798840833,0.18424734,-0.16211374,9.736994,0.00076358096,-0.0003054324,0.0001527162,-630.22504,-238.06876,-606.3188,watch_2
26361793725729,0.18424734,-0.16211374,9.736994,0.00076358096,-0.0003054324,0.0001527162,-630.22504,-238.06876,-606.3188,watch_2
26361812598177,0.18424734,-0.16211374,9.736994,0.00076358096,-0.0003054324,0.0001527162,-632.2688,-238.89375,-606.6188,watch_2
26361822598125,0.18424734,-0.16211374,9.736994,0.00076358096,-0.0003054324,0.0001527162,-631.80005,-238.83751,-606.5625,watch_2
26361813348698,0.19381863,-0.17168503,9.741779,-0.0004581486,-0.0003054324,0.0001527162,-631.80005,-238.83751,-606.5625,watch_2
26361818463802,0.19381863,-0.17168503,9.741779,-0.0004581486,-0.0003054324,0.0001527162,-631.80005,-238.83751,-606.5625,watch_2
26361832598073,0.19381863,-0.17168503,9.741779,-0.0004581486,-0.0003054324,0.0001527162,-630.73126,-237.1125,-607.48126,watch_2
26361842598021,0.19381863,-0.17168503,9.741779,-0.0004581486,-0.0003054324,0.0001527162,-630.41254,-236.77501,-608.2125,watch_2
26361838086823,0.18903299,-0.17647067,9.756136,0.00076358096,0.0009162972,0.0001527162,-630.41254,-236.77501,-608.2125,watch_2
26361832971719,0.18903299,-0.17647067,9.756136,0.00076358096,0.0009162972,0.0001527162,-630.41254,-236.77501,-608.2125,watch_2
26361852597969,0.18903299,-0.17647067,9.756136,0.00076358096,0.0009162972,0.0001527162,-632.1188,-237.43126,-607.7625,watch_2
26361862597916,0.18903299,-0.17647067,9.756136,0.00076358096,0.0009162972,0.0001527162,-633.6188,-237.65627,-606.60004,watch_2
26361857739844,0.18903299,-0.16211374,9.741779,0.00076358096,-0.0003054324,0.0001527162,-633.6188,-237.65627,-606.60004,watch_2
26361852624739,0.18903299,-0.16211374,9.741779,0.00076358096,-0.0003054324,0.0001527162,-633.6188,-237.65627,-606.60004,watch_2
26361872597864,0.18903299,-0.16211374,9.741779,0.00076358096,-0.0003054324,0.0001527162,-633.825,-236.32501,-609.9563,watch_2
26361882597812,0.18903299,-0.16211374,9.741779,0.00076358096,-0.0003054324,0.0001527162,-632.04376,-236.71877,-607.8188,watch_2
26361872247708,0.1794617,-0.16689938,9.75135,0.00076358096,-0.0003054324,0.0001527162,-632.04376,-236.71877,-607.8188,watch_2
26361877362812,0.1794617,-0.16689938,9.75135,0.00076358096,-0.0003054324,0.0001527162,-632.04376,-236.71877,-607.8188,watch_2
26361892597760,0.1794617,-0.16689938,9.75135,0.00076358096,-0.0003054324,0.0001527162,-633.48755,-238.87502,-608.36255,watch_2
26361902597708,0.1794617,-0.16689938,9.75135,0.00076358096,-0.0003054324,0.0001527162,-631.5,-236.86876,-610.0688,watch_2
26361897015833,0.18903299,-0.16211374,9.741779,0.00076358096,-0.0003054324,0.0001527162,-631.5,-236.86876,-610.0688,watch_2
26361891900729,0.18903299,-0.16211374,9.741779,-0.0004581486,-0.0003054324,0.0001527162,-633.9375,-238.93126,-607.66876,watch_2
26361912597656,0.18903299,-0.16211374,9.741779,-0.0004581486,-0.0003054324,0.0001527162,-633.9375,-238.93126,-607.66876,watch_2
26361922597604,0.18903299,-0.16211374,9.741779,-0.0004581486,-0.0003054324,0.0001527162,-633.73126,-235.65001,-608.55005,watch_2
26361916638802,0.19381863,-0.17647067,9.756136,-0.0004581486,-0.0003054324,0.0001527162,-633.73126,-235.65001,-608.55005,watch_2
26361911523698,0.19381863,-0.17647067,9.756136,-0.0004581486,-0.0003054324,0.0001527162,-633.73126,-235.65001,-608.55005,watch_2
26361932597552,0.19381863,-0.17647067,9.756136,-0.0004581486,-0.0003054324,0.0001527162,-633.3188,-237.1125,-609.525,watch_2
26361942597500,0.19381863,-0.17647067,9.756136,-0.0004581486,-0.0003054324,0.0001527162,-634.78125,-238.14375,-609.8813,watch_2
26361936261823,0.19860429,-0.18125631,9.741779,-0.0004581486,0.0009162972,0.0001527162,-634.78125,-238.14375,-609.8813,watch_2
26361931146719,0.19860429,-0.18125631,9.741779,-0.0004581486,0.0009162972,0.0001527162,-632.8125,-236.79376,-608.34375,watch_2
26361952597448,0.19860429,-0.18125631,9.741779,-0.0004581486,0.0009162972,0.0001527162,-632.8125,-236.79376,-608.34375,watch_2
26361962597396,0.19860429,-0.18125631,9.741779,-0.0004581486,0.0009162972,0.0001527162,-631.05005,-237.3,-607.35004,watch_2
26361955914844,0.18903299,-0.17168503,9.736994,-0.0004581486,0.0021380268,0.0001527162,-631.05005,-237.3,-607.35004,watch_2
26361950799739,0.18903299,-0.17168503,9.736994,-0.0004581486,0.0021380268,0.0001527162,-631.05005,-237.3,-607.35004,watch_2
26361972597344,0.18903299,-0.17168503,9.736994,-0.0004581486,0.0021380268,0.0001527162,-632.98126,-238.21877,-609.22504,watch_2
26361982597291,0.18903299,-0.17168503,9.736994,-0.0004581486,0.0021380268,0.0001527162,-633.30005,-240.15001,-607.2,watch_2
26361975537812,0.19381863,-0.16689938,9.746565,-0.0004581486,0.0009162972,0.0001527162,-633.30005,-240.15001,-607.2,watch_2
26361970422708,0.19381863,-0.16689938,9.746565,-0.0004581486,0.0009162972,0.0001527162,-633.30005,-240.15001,-607.2,watch_2
26361992597239,0.19381863,-0.16689938,9.746565,-0.0004581486,0.0009162972,0.0001527162,-631.7063,-237.80626,-607.66876,watch_2
26362002597187,0.19381863,-0.16689938,9.746565,-0.0004581486,0.0009162972,0.0001527162,-632.5875,-237.63751,-607.35004,watch_2
26361990075729,0.18903299,-0.16689938,9.741779,0.00076358096,-0.0015271619,0.0001527162,-632.5875,-237.63751,-607.35004,watch_2
26361995190833,0.18903299,-0.16689938,9.741779,0.00076358096,-0.0015271619,0.0001527162,-632.5875,-237.63751,-607.35004,watch_2
26362012597135,0.18903299,-0.16689938,9.741779,0.00076358096,-0.0015271619,0.0001527162,-632.4,-237.16876,-608.55005,watch_2
26362022597083,0.18903299,-0.16689938,9.741779,0.00076358096,-0.0015271619,0.0001527162,-633.16876,-237.24376,-609.35626,watch_2
26362009698698,0.18903299,-0.16689938,9.75135,-0.0004581486,-0.0003054324,0.0001527162,-633.16876,-237.24376,-609.35626,watch_2
26362014813802,0.18903299,-0.16689938,9.75135,-0.0004581486,-0.0003054324,0.0001527162,-633.16876,-237.24376,-609.35626,watch_2
26362032597031,0.18903299,-0.16689938,9.75135,-0.0004581486,-0.0003054324,0.0001527162,-634.80005,-236.86876,-610.875,watch_2
26362042596979,0.19381863,-0.17647067,9.746565,-0.0004581486,-0.0003054324,0.0001527162,-633.73126,-236.7375,-610.3313,watch_2
26362034466823,0.19381863,-0.17647067,9.746565,-0.0004581486,-0.0003054324,0.0001527162,-633.73126,-236.7375,-610.3313,watch_2
26362029351719,0.19381863,-0.17647067,9.746565,0.00076358096,-0.0003054324,0.0001527162,-633.73126,-236.7375,-610.3313,watch_2
26362052596927,0.19381863,-0.17647067,9.746565,0.00076358096,-0.0003054324,0.0001527162,-634.03125,-235.20001,-611.4,watch_2
26362062596875,0.19381863,-0.17647067,9.746565,0.00076358096,-0.0003054324,0.0001527162,-633.91876,-235.78127,-610.16254,watch_2
26362054089844,0.19381863,-0.17168503,9.736994,0.00076358096,-0.0003054324,0.0001527162,-633.91876,-235.78127,-610.16254,watch_2
26362048974739,0.19381863,-0.17168503,9.736994,-0.0004581486,0.0009162972,0.0001527162,-633.86255,-236.62502,-609.91876,watch_2
26362072596823,0.19381863,-0.17168503,9.736994,-0.0004581486,0.0009162972,0.0001527162,-633.86255,-236.62502,-609.91876,watch_2
26362082596771,0.19381863,-0.17168503,9.75135,-0.0004581486,0.0009162972,0.0001527162,-633.86255,-236.62502,-609.91876,watch_2
26362068597708,0.19381863,-0.17168503,9.75135,-0.0004581486,0.0009162972,0.0001527162,-633.86255,-236.62502,-609.91876,watch_2
26362073712812,0.19381863,-0.17168503,9.75135,-0.0004581486,0.0009162972,0.0001527162,-633.86255,-236.62502,-609.91876,watch_2
26362092596719,0.19381863,-0.17168503,9.75135,-0.0004581486,0.0009162972,0.0001527162,-633.9938,-236.49376,-610.10626,watch_2
26362102596666,0.19860429,-0.17647067,9.741779,-0.0004581486,-0.0003054324,0.0001527162,-634.65,-237.01875,-609.2438,watch_2
26362088250729,0.19860429,-0.17647067,9.741779,-0.0004581486,-0.0003054324,0.0001527162,-634.65,-237.01875,-609.2438,watch_2
26362093365833,0.19860429,-0.17647067,9.741779,-0.0004581486,-0.0003054324,0.0001527162,-634.65,-237.01875,-609.2438,watch_2
26362112596614,0.19860429,-0.17647067,9.741779,-0.0004581486,-0.0003054324,0.0001527162,-634.0125,-236.49376,-610.3875,watch_2
26362122596562,0.19860429,-0.17647067,9.741779,-0.0004581486,-0.0003054324,0.0001527162,-633.4313,-235.59377,-609.2438,watch_2
26362112988802,0.18903299,-0.16211374,9.736994,-0.0004581486,-0.0003054324,-0.0010690134,-633.4313,-235.59377,-609.2438,watch_2
26362107873698,0.18903299,-0.16211374,9.736994,-0.0004581486,-0.0003054324,-0.0010690134,-633.4313,-235.59377,-609.2438,watch_2
26362132596510,0.18903299,-0.16211374,9.736994,-0.0004581486,-0.0003054324,-0.0010690134,-634.3688,-235.83751,-609.48755,watch_2
26362142596458,0.18903299,-0.16211374,9.736994,-0.0004581486,-0.0003054324,-0.0010690134,-634.91254,-236.77501,-609.30005,watch_2
26362132641823,0.17467605,-0.17168503,9.75135,-0.0004581486,-0.0003054324,-0.0010690134,-634.91254,-236.77501,-609.30005,watch_2
26362127526719,0.17467605,-0.17168503,9.75135,0.00076358096,-0.0003054324,0.0001527162,-634.91254,-236.77501,-609.30005,watch_2
26362152596406,0.17467605,-0.17168503,9.75135,0.00076358096,-0.0003054324,0.0001527162,-634.1438,-236.68126,-608.4938,watch_2
26362162596354,0.19381863,-0.17168503,9.741779,0.00076358096,-0.0003054324,0.0001527162,-634.3313,-235.55626,-609.5063,watch_2
26362152264844,0.19381863,-0.17168503,9.741779,0.00076358096,-0.0003054324,0.0001527162,-634.3313,-235.55626,-609.5063,watch_2
26362147149739,0.19381863,-0.17168503,9.741779,-0.0004581486,0.0009162972,0.0001527162,-634.91254,-236.75626,-609.60004,watch_2
26362172596302,0.19381863,-0.17168503,9.741779,-0.0004581486,0.0009162972,0.0001527162,-634.91254,-236.75626,-609.60004,watch_2
26362166772708,0.19381863,-0.17168503,9.756136,0.00076358096,-0.0015271619,0.0001527162,-634.91254,-236.75626,-609.60004,watch_2
26362171887812,0.19381863,-0.17168503,9.756136,0.00076358096,-0.0015271619,0.0001527162,-634.91254,-236.75626,-609.60004,watch_2
26362182596250,0.19381863,-0.17168503,9.756136,0.00076358096,-0.0015271619,0.0001527162,-634.9313,-238.35,-608.5688,watch_2
26362192596198,0.19381863,-0.17168503,9.756136,0.00076358096,-0.0015271619,0.0001527162,-634.8375,-236.04376,-609.65625,watch_2
26362191540833,0.19381863,-0.16689938,9.746565,0.00076358096,-0.0015271619,0.0001527162,-634.8375,-236.04376,-609.65625,watch_2
26362186425729,0.19381863,-0.16689938,9.746565,-0.0004581486,-0.0003054324,0.0001527162,-634.8375,-236.04376,-609.65625,watch_2
26362202596146,0.19381863,-0.16689938,9.746565,-0.0004581486,-0.0003054324,0.0001527162,-635.17505,-235.10626,-609.0563,watch_2
26362212596094,0.19381863,-0.16689938,9.746565,-0.0004581486,-0.0003054324,0.0001527162,-632.92505,-236.3625,-609.2625,watch_2
26362206048698,0.18903299,-0.17168503,9.746565,-0.0004581486,0.0021380268,0.0001527162,-632.92505,-236.3625,-609.2625,watch_2
26362211163802,0.18903299,-0.17168503,9.746565,-0.0004581486,0.0021380268,0.0001527162,-632.92505,-236.3625,-609.2625,watch_2
26362222596041,0.18903299,-0.17168503,9.746565,-0.0004581486,0.0021380268,0.0001527162,-634.1438,-237.7875,-610.275,watch_2
26362232595989,0.18903299,-0.17168503,9.746565,-0.0004581486,0.0021380268,0.0001527162,-635.3813,-237.13126,-608.60626,watch_2
26362225701719,0.18903299,-0.17168503,9.746565,0.00076358096,-0.0003054324,0.0001527162,-635.3813,-237.13126,-608.60626,watch_2
26362242595937,0.18903299,-0.17168503,9.746565,0.00076358096,-0.0003054324,0.0001527162,-634.35004,-235.87502,-608.4563,watch_2
26362230816823,0.18424734,-0.18125631,9.746565,0.00076358096,-0.0003054324,0.0001527162,-633.2438,-236.40001,-609.5813,watch_2
26362252595885,0.18424734,-0.18125631,9.746565,0.00076358096,-0.0003054324,0.0001527162,-633.2438,-236.40001,-609.5813,watch_2
26362250439844,0.1794617,-0.16689938,9.741779,0.00076358096,-0.0003054324,0.0001527162,-633.2438,-236.40001,-609.5813,watch_2
26362245324739,0.1794617,-0.16689938,9.741779,-0.0004581486,0.0009162972,-0.0010690134,-633.2438,-236.40001,-609.5813,watch_2
26362262595833,0.1794617,-0.16689938,9.741779,-0.0004581486,0.0009162972,-0.0010690134,-634.7438,-236.60626,-609.45,watch_2
26362272595781,0.1794617,-0.16689938,9.741779,-0.0004581486,0.0009162972,-0.0010690134,-633.84375,-236.32501,-610.53754,watch_2
26362270062812,0.18903299,-0.16211374,9.746565,-0.0004581486,0.0009162972,-0.0010690134,-633.84375,-236.32501,-610.53754,watch_2
26362264947708,0.18903299,-0.16211374,9.746565,0.00076358096,0.0009162972,0.0001527162,-633.84375,-236.32501,-610.53754,watch_2
26362292595677,0.18903299,-0.16211374,9.746565,0.00076358096,0.0009162972,0.0001527162,-633.9,-236.90627,-609.9,watch_2
26362282595729,0.18903299,-0.16211374,9.746565,0.00076358096,0.0009162972,0.0001527162,-633.9,-236.90627,-609.9,watch_2
26362289715833,0.18424734,-0.17168503,9.736994,-0.0004581486,-0.0015271619,0.0001527162,-633.9,-236.90627,-609.9,watch_2
26362284600729,0.18424734,-0.17168503,9.736994,-0.0004581486,-0.0015271619,0.0001527162,-634.16254,-236.98126,-608.04376,watch_2
26362302595625,0.18424734,-0.17168503,9.736994,-0.0004581486,-0.0015271619,0.0001527162,-634.16254,-236.98126,-608.04376,watch_2
26362312595573,0.18424734,-0.17168503,9.736994,-0.0004581486,-0.0015271619,0.0001527162,-633.91876,-236.1,-608.3813,watch_2
26362309338802,0.20338993,-0.17647067,9.746565,-0.0004581486,-0.0015271619,0.0001527162,-633.91876,-236.1,-608.3813,watch_2
26362304223698,0.20338993,-0.17647067,9.746565,0.00076358096,-0.0003054324,-0.0010690134,-633.91876,-236.1,-608.3813,watch_2
26362322595521,0.20338993,-0.17647067,9.746565,0.00076358096,-0.0003054324,-0.0010690134,-633.7125,-238.03127,-609.03754,watch_2
26362332595469,0.20338993,-0.17647067,9.746565,0.00076358096,-0.0003054324,-0.0010690134,-633.9,-236.90627,-610.2,watch_2
26362328991823,0.18424734,-0.16689938,9.746565,0.00076358096,0.0009162972,-0.0010690134,-633.9,-236.90627,-610.2,watch_2
26362323876719,0.18424734,-0.16689938,9.746565,0.00076358096,0.0009162972,-0.0010690134,-633.9,-236.90627,-610.2,watch_2
26362342595416,0.18424734,-0.16689938,9.746565,0.00076358096,0.0009162972,-0.0010690134,-634.125,-236.38126,-609.2625,watch_2
26362352595364,0.18424734,-0.16689938,9.746565,0.00076358096,0.0009162972,-0.0010690134,-634.2,-236.94376,-610.21875,watch_2
26362348614844,0.1794617,-0.17168503,9.732208,0.00076358096,-0.0003054324,0.0001527162,-634.2,-236.94376,-610.21875,watch_2
26362362595312,0.1794617,-0.17168503,9.732208,0.00076358096,-0.0003054324,0.0001527162,-632.9625,-236.6625,-609.2438,watch_2
26362343499739,0.1794617,-0.17168503,9.732208,0.00076358096,-0.0003054324,0.0001527162,-632.9625,-236.6625,-609.2438,watch_2
26362372595260,0.1794617,-0.17168503,9.732208,0.00076358096,-0.0003054324,0.0001527162,-634.275,-235.12502,-609.2438,watch_2
26362363152708,0.17467605,-0.16211374,9.746565,-0.0004581486,-0.0003054324,0.0001527162,-634.275,-235.12502,-609.2438,watch_2
26362368267812,0.17467605,-0.16211374,9.746565,-0.0004581486,-0.0003054324,0.0001527162,-634.275,-235.12502,-609.2438,watch_2
26362382595208,0.17467605,-0.16211374,9.746565,-0.0004581486,-0.0003054324,0.0001527162,-635.41876,-235.66876,-611.0813,watch_2
26362392595156,0.17467605,-0.16211374,9.746565,-0.0004581486,-0.0003054324,0.0001527162,-633.5813,-235.78127,-607.95,watch_2
26362387890833,0.18903299,-0.16689938,9.741779,-0.0004581486,-0.0015271619,0.0001527162,-633.5813,-235.78127,-607.95,watch_2
26362382775729,0.18903299,-0.16689938,9.741779,-0.0004581486,-0.0015271619,0.0001527162,-633.5813,-235.78127,-607.95,watch_2
26362402595104,0.18903299,-0.16689938,9.741779,-0.0004581486,-0.0015271619,0.0001527162,-633.91876,-235.78127,-610.16254,watch_2
26362412595052,0.18903299,-0.16689938,9.741779,-0.0004581486,-0.0015271619,0.0001527162,-632.53125,-237.05626,-607.6875,watch_2
26362402398698,0.19381863,-0.17168503,9.736994,-0.0016798781,0.0009162972,0.0001527162,-632.53125,-237.05626,-607.6875,watch_2
26362407513802,0.19381863,-0.17168503,9.736994,-0.0016798781,0.0009162972,0.0001527162,-632.53125,-237.05626,-607.6875,watch_2
26362422595000,0.19381863,-0.17168503,9.736994,-0.0016798781,0.0009162972,0.0001527162,-633.8063,-237.7875,-607.48126,watch_2
26362432594948,0.19381863,-0.17168503,9.736994,-0.0016798781,0.0009162972,0.0001527162,-631.65,-238.96877,-605.3813,watch_2
26362427166823,0.19860429,-0.17168503,9.741779,-0.0016798781,0.0009162972,0.0001527162,-631.65,-238.96877,-605.3813,watch_2
26362422051719,0.19860429,-0.17168503,9.741779,0.00076358096,-0.0003054324,0.0001527162,-631.65,-238.96877,-605.3813,watch_2
26362442594896,0.19860429,-0.17168503,9.741779,0.00076358096,-0.0003054324,0.0001527162,-631.8938,-236.51251,-609.1313,watch_2
26362452594844,0.19860429,-0.17168503,9.741779,0.00076358096,-0.0003054324,0.0001527162,-632.0063,-236.11876,-609.03754,watch_2
26362446789844,0.18424734,-0.16211374,9.732208,0.00076358096,-0.0003054324,0.0001527162,-632.0063,-236.11876,-609.03754,watch_2
26362441674739,0.18424734,-0.16211374,9.732208,-0.0004581486,0.0009162972,0.0001527162,-632.0063,-236.11876,-609.03754,watch_2
26362462594791,0.18424734,-0.16211374,9.732208,-0.0004581486,0.0009162972,0.0001527162,-633.3375,-237.4125,-608.92505,watch_2
26362472594739,0.18424734,-0.16211374,9.732208,0.00076358096,0.0009162972,0.0001527162,-632.4375,-236.34377,-607.4625,watch_2
26362461328698,0.18424734,-0.16211374,9.732208,0.00076358096,0.0009162972,0.0001527162,-632.4375,-236.34377,-607.4625,watch_2
26362466443802,0.19860429,-0.17168503,9.75135,0.00076358096,0.0009162972,0.0001527162,-630.60004,-237.24376,-607.3125,watch_2
26362482594687,0.19860429,-0.17168503,9.75135,0.00076358096,0.0009162972,0.0001527162,-630.60004,-237.24376,-607.3125,watch_2
26362492594635,0.19860429,-0.17168503,9.75135,0.00076358096,0.0009162972,0.0001527162,-632.60626,-237.6,-609.11255,watch_2
26362480950729,0.1794617,-0.16689938,9.746565,-0.0004581486,-0.0015271619,0.0001527162,-632.60626,-237.6,-609.11255,watch_2
26362486065833,0.1794617,-0.16689938,9.746565,-0.0004581486,-0.0015271619,0.0001527162,-632.60626,-237.6,-609.11255,watch_2
26362502594583,0.1794617,-0.16689938,9.746565,-0.0004581486,-0.0015271619,0.0001527162,-633.825,-237.75002,-609.525,watch_2
26362512594531,0.1794617,-0.16689938,9.746565,-0.0004581486,-0.0015271619,0.0001527162,-632.5875,-237.61876,-608.0813,watch_2
26362505688802,0.18424734,-0.15732808,9.746565,-0.0004581486,-0.0015271619,0.0001527162,-632.5875,-237.61876,-608.0813,watch_2
26362500573698,0.18424734,-0.15732808,9.746565,0.00076358096,0.0009162972,-0.0010690134,-632.5875,-237.61876,-608.0813,watch_2
26362522594479,0.18424734,-0.15732808,9.746565,0.00076358096,0.0009162972,-0.0010690134,-633.75,-238.31252,-609.75,watch_2
26362532594427,0.18424734,-0.15732808,9.746565,0.00076358096,0.0009162972,-0.0010690134,-632.8125,-236.79376,-608.625,watch_2
26362525341823,0.19381863,-0.18604197,9.736994,0.00076358096,0.0009162972,-0.0010690134,-632.8125,-236.79376,-608.625,watch_2
26362520226719,0.19381863,-0.18604197,9.736994,-0.0004581486,-0.0003054324,-0.0010690134,-632.8125,-236.79376,-608.625,watch_2
26362542594375,0.19381863,-0.18604197,9.736994,-0.0004581486,-0.0003054324,-0.0010690134,-636.60004,-235.5375,-610.6313,watch_2
26362552594323,0.19381863,-0.18604197,9.736994,-0.0004581486,-0.0003054324,-0.0010690134,-631.875,-236.53127,-608.4,watch_2
26362562594271,0.18424734,-0.17647067,9.732208,0.00076358096,-0.0003054324,0.0001527162,-633.825,-236.32501,-609.9563,watch_2
26362544964844,0.18424734,-0.17647067,9.732208,0.00076358096,-0.0003054324,0.0001527162,-633.825,-236.32501,-609.9563,watch_2
26362539849739,0.18424734,-0.17647067,9.732208,0.00076358096,-0.0003054324,0.0001527162,-633.825,-236.32501,-609.9563,watch_2
26362572594219,0.18424734,-0.17647067,9.732208,0.00076358096,-0.0003054324,0.0001527162,-634.05005,-235.96877,-608.1188,watch_2
26362564618802,0.18424734,-0.17647067,9.746565,0.00076358096,-0.0003054324,0.0001527162,-634.05005,-235.96877,-608.1188,watch_2
26362559503698,0.18424734,-0.17647067,9.746565,-0.0004581486,0.0009162972,0.0001527162,-634.05005,-235.96877,-608.1188,watch_2
26362582594166,0.18424734,-0.17647067,9.746565,-0.0004581486,0.0009162972,0.0001527162,-633.11255,-236.51251,-610.1438,watch_2
26362592594114,0.18424734,-0.17647067,9.746565,-0.0004581486,0.0009162972,0.0001527162,-634.23755,-237.39375,-609.45,watch_2
26362584240833,0.18903299,-0.17647067,9.741779,-0.0004581486,-0.0015271619,0.0001527162,-632.8125,-235.38751,-608.625,watch_2
26362579125729,0.18903299,-0.17647067,9.741779,-0.0004581486,-0.0015271619,0.0001527162,-632.8125,-235.38751,-608.625,watch_2
26362602594062,0.18903299,-0.17647067,9.741779,-0.0004581486,-0.0015271619,0.0001527162,-632.8125,-235.38751,-608.625,watch_2
26362612594010,0.18903299,-0.17647067,9.741779,0.00076358096,0.0009162972,0.0001527162,-633.0188,-235.81876,-609.46875,watch_2
26362598748698,0.18903299,-0.17647067,9.741779,0.00076358096,0.0009162972,0.0001527162,-633.0188,-235.81876,-609.46875,watch_2
26362603863802,0.19381863,-0.17647067,9.746565,0.00076358096,0.0009162972,0.0001527162,-633.0188,-235.81876,-609.46875,watch_2
26362622593958,0.19381863,-0.17647067,9.746565,0.00076358096,0.0009162972,0.0001527162,-634.80005,-235.76251,-609.3938,watch_2
26362632593906,0.19381863,-0.17647067,9.746565,0.00076358096,0.0009162972,0.0001527162,-633.11255,-236.51251,-610.1438,watch_2
26362623516823,0.19381863,-0.16689938,9.75135,0.00076358096,-0.0003054324,0.0001527162,-633.11255,-236.51251,-610.1438,watch_2
26362618401719,0.19381863,-0.16689938,9.75135,0.00076358096,-0.0003054324,0.0001527162,-633.11255,-236.51251,-610.1438,watch_2
26362642593854,0.19381863,-0.16689938,9.75135,0.00076358096,-0.0003054324,0.0001527162,-633.5625,-236.58751,-609.9,watch_2
26362652593802,0.19381863,-0.16689938,9.75135,0.00076358096,-0.0003054324,0.0001527162,-634.5563,-235.96877,-611.3813,watch_2
26362638024739,0.18903299,-0.18604197,9.732208,-0.0004581486,-0.0003054324,0.0001527162,-634.5563,-235.96877,-611.3813,watch_2
26362643139844,0.18903299,-0.18604197,9.732208,-0.0004581486,-0.0003054324,0.0001527162,-634.5563,-235.96877,-611.3813,watch_2
26362662593750,0.18903299,-0.18604197,9.732208,-0.0004581486,-0.0003054324,0.0001527162,-631.91254,-236.51251,-609.86255,watch_2
26362672593698,0.18903299,-0.18604197,9.732208,-0.0004581486,-0.0003054324,0.0001527162,-632.9438,-236.34377,-610.275,watch_2
26362657678698,0.19860429,-0.17647067,9.756136,0.00076358096,0.0009162972,0.0001527162,-632.9438,-236.34377,-610.275,watch_2
26362662793802,0.19860429,-0.17647067,9.756136,0.00076358096,0.0009162972,0.0001527162,-632.9438,-236.34377,-610.275,watch_2
26362682593646,0.19860429,-0.17647067,9.756136,0.00076358096,0.0009162972,0.0001527162,-634.4438,-236.56876,-609.1313,watch_2
26362682415833,0.19860429,-0.16211374,9.741779,0.00076358096,0.0009162972,0.0001527162,-634.4438,-236.56876,-609.1313,watch_2
26362677300729,0.19860429,-0.16211374,9.741779,-0.0004581486,-0.0003054324,0.0001527162,-634.4438,-236.56876,-609.1313,watch_2
26362692593594,0.19860429,-0.16211374,9.741779,-0.0004581486,-0.0003054324,0.0001527162,-634.10626,-237.4875,-610.0125,watch_2
26362702593541,0.19860429,-0.16211374,9.741779,-0.0004581486,-0.0003054324,0.0001527162,-634.10626,-237.4875,-610.0125,watch_2
26362696954739,0.19860429,-0.17647067,9.756136,0.00076358096,0.0009162972,0.0001527162,-634.10626,-237.4875,-610.0125,watch_2
26362702069844,0.19860429,-0.17647067,9.756136,0.00076358096,0.0009162972,0.0001527162,-634.10626,-237.4875,-610.0125,watch_2
26362712593489,0.19860429,-0.17647067,9.756136,0.00076358096,0.0009162972,0.0001527162,-634.0688,-237.225,-609.0188,watch_2
26362722593437,0.19860429,-0.17647067,9.756136,0.00076358096,0.0009162972,0.0001527162,-634.61255,-236.71877,-609.5625,watch_2
26362721692812,0.18424734,-0.16689938,9.75135,0.00076358096,-0.0015271619,0.0001527162,-634.61255,-236.71877,-609.5625,watch_2
26362716577708,0.18424734,-0.16689938,9.75135,0.00076358096,-0.0015271619,0.0001527162,-634.61255,-236.71877,-609.5625,watch_2
26362732593385,0.18424734,-0.16689938,9.75135,0.00076358096,-0.0015271619,0.0001527162,-633.54376,-236.58751,-609.45,watch_2
26362742593333,0.18424734,-0.16689938,9.75135,0.00076358096,-0.0015271619,0.0001527162,-633.45,-235.9125,-607.7625,watch_2
26362736199739,0.19860429,-0.17168503,9.736994,-0.0004581486,-0.0003054324,0.0001527162,-633.45,-235.9125,-607.7625,watch_2
26362741314844,0.19860429,-0.17168503,9.736994,-0.0004581486,-0.0003054324,0.0001527162,-633.45,-235.9125,-607.7625,watch_2
26362752593281,0.19860429,-0.17168503,9.736994,-0.0004581486,-0.0003054324,0.0001527162,-632.5688,-237.33751,-608.10004,watch_2
26362762593229,0.19860429,-0.17168503,9.736994,-0.0004581486,-0.0003054324,0.0001527162,-632.5688,-237.33751,-608.10004,watch_2
26362760968802,0.19381863,-0.17168503,9.756136,-0.0004581486,-0.0003054324,0.0001527162,-632.5688,-237.33751,-608.10004,watch_2
26362755853698,0.19381863,-0.17168503,9.756136,-0.0004581486,-0.0003054324,0.0001527162,-632.5688,-237.33751,-608.10004,watch_2
26362772593177,0.19381863,-0.17168503,9.756136,-0.0004581486,-0.0003054324,0.0001527162,-633.7688,-237.18752,-609.28125,watch_2
26362782593125,0.19381863,-0.17168503,9.756136,-0.0004581486,-0.0003054324,0.0001527162,-633.54376,-236.60626,-608.73755,watch_2
26362780590833,0.18903299,-0.16211374,9.736994,-0.0004581486,-0.0003054324,0.0001527162,-633.54376,-236.60626,-608.73755,watch_2
26362792593073,0.18903299,-0.16211374,9.736994,-0.0016798781,-0.0003054324,0.0001527162,-633.30005,-237.15001,-608.4938,watch_2
26362775475729,0.18903299,-0.16211374,9.736994,-0.0016798781,-0.0003054324,0.0001527162,-633.30005,-237.15001,-608.4938,watch_2
26362802593021,0.18903299,-0.16211374,9.736994,-0.0016798781,-0.0003054324,0.0001527162,-633.30005,-237.13126,-608.9438,watch_2
26362800244844,0.18424734,-0.17168503,9.75135,0.00076358096,0.0009162972,0.0001527162,-633.30005,-237.13126,-608.9438,watch_2
26362795129739,0.18424734,-0.17168503,9.75135,0.00076358096,0.0009162972,0.0001527162,-633.30005,-237.13126,-608.9438,watch_2
26362812592969,0.18424734,-0.17168503,9.75135,0.00076358096,0.0009162972,0.0001527162,-633.8813,-236.90627,-609.46875,watch_2
26362822592916,0.18424734,-0.17168503,9.75135,0.00076358096,0.0009162972,0.0001527162,-634.3875,-235.83751,-610.2,watch_2
26362819867812,0.17467605,-0.17647067,9.736994,0.00076358096,0.0009162972,0.0001527162,-634.3875,-235.83751,-610.2,watch_2
26362814752708,0.17467605,-0.17647067,9.736994,-0.0004581486,-0.0003054324,0.0001527162,-635.325,-236.56876,-608.2125,watch_2
26362832592864,0.17467605,-0.17647067,9.736994,-0.0004581486,-0.0003054324,0.0001527162,-635.325,-236.56876,-608.2125,watch_2
26362842592812,0.17467605,-0.17647067,9.736994,-0.0004581486,-0.0003054324,0.0001527162,-631.78125,-235.51875,-609.22504,watch_2
26362839489844,0.17467605,-0.17168503,9.746565,-0.0004581486,-0.0003054324,0.0001527162,-631.78125,-235.51875,-609.22504,watch_2
26362834374739,0.17467605,-0.17168503,9.746565,-0.0004581486,-0.0003054324,-0.0010690134,-631.78125,-235.51875,-609.22504,watch_2
26362852592760,0.17467605,-0.17168503,9.746565,-0.0004581486,-0.0003054324,-0.0010690134,-634.0688,-235.96877,-608.5688,watch_2
26362862592708,0.17467605,-0.17168503,9.746565,-0.0004581486,-0.0003054324,-0.0010690134,-635.4938,-236.71877,-608.79376,watch_2
26362854028698,0.18903299,-0.16689938,9.741779,-0.0004581486,-0.0015271619,0.0001527162,-635.4938,-236.71877,-608.79376,watch_2
26362859143802,0.18903299,-0.16689938,9.741779,-0.0004581486,-0.0015271619,0.0001527162,-635.4938,-236.71877,-608.79376,watch_2
26362872592656,0.18903299,-0.16689938,9.741779,-0.0004581486,-0.0015271619,0.0001527162,-633.9375,-235.74376,-611.17505,watch_2
26362882592604,0.18903299,-0.16689938,9.741779,-0.0004581486,-0.0015271619,0.0001527162,-632.47504,-236.30626,-609.22504,watch_2
26362878766823,0.18424734,-0.17647067,9.741779,-0.0004581486,-0.0003054324,0.0001527162,-632.47504,-236.30626,-609.22504,watch_2
26362873651719,0.18424734,-0.17647067,9.741779,-0.0004581486,-0.0003054324,0.0001527162,-632.47504,-236.30626,-609.22504,watch_2
26362892592552,0.18424734,-0.17647067,9.741779,-0.0004581486,-0.0003054324,0.0001527162,-634.3875,-235.81876,-610.5,watch_2
26362902592500,0.18424734,-0.17647067,9.741779,-0.0004581486,-0.0003054324,0.0001527162,-633.91876,-235.78127,-609.4313,watch_2
26362898419844,0.19381863,-0.17647067,9.756136,0.00076358096,0.0009162972,0.0001527162,-633.91876,-235.78127,-609.4313,watch_2
26362893304739,0.19381863,-0.17647067,9.756136,0.00076358096,0.0009162972,0.0001527162,-633.91876,-235.78127,-609.4313,watch_2
26362912592448,0.19381863,-0.17647067,9.756136,0.00076358096,0.0009162972,0.0001527162,-634.875,-236.475,-609.3375,watch_2
26362922592396,0.19381863,-0.17647067,9.756136,0.00076358096,0.0009162972,0.0001527162,-634.575,-237.8625,-609.0188,watch_2
26362912927708,0.18903299,-0.17647067,9.732208,-0.0004581486,0.0009162972,-0.0010690134,-634.575,-237.8625,-609.0188,watch_2
26362918042812,0.18903299,-0.17647067,9.732208,-0.0004581486,0.0009162972,-0.0010690134,-634.575,-237.8625,-609.0188,watch_2
26362932592344,0.18903299,-0.17647067,9.732208,-0.0004581486,0.0009162972,-0.0010690134,-634.61255,-237.82501,-610.7625,watch_2
26362942592291,0.18903299,-0.17647067,9.732208,-0.0004581486,0.0009162972,-0.0010690134,-633.9938,-236.49376,-610.10626,watch_2
26362932549739,0.1794617,-0.15732808,9.75135,0.00076358096,-0.0003054324,0.0001527162,-633.9938,-236.49376,-610.10626,watch_2
26362937664844,0.1794617,-0.15732808,9.75135,0.00076358096,-0.0003054324,0.0001527162,-633.9938,-236.49376,-610.10626,watch_2
26362952592239,0.1794617,-0.15732808,9.75135,0.00076358096,-0.0003054324,0.0001527162,-633.97504,-236.51251,-608.6438,watch_2
26362962592187,0.1794617,-0.15732808,9.75135,0.00076358096,-0.0003054324,0.0001527162,-632.10004,-237.1125,-608.9438,watch_2
26362952203698,0.18903299,-0.17647067,9.736994,-0.0016798781,-0.0003054324,0.0001527162,-632.10004,-237.1125,-608.9438,watch_2
26362957318802,0.18903299,-0.17647067,9.736994,-0.0016798781,-0.0003054324,0.0001527162,-632.10004,-237.1125,-608.9438,watch_2
26362972592135,0.18903299,-0.17647067,9.736994,-0.0016798781,-0.0003054324,0.0001527162,-634.29376,-235.12502,-609.825,watch_2
26362982592083,0.18903299,-0.17647067,9.736994,-0.0016798781,-0.0003054324,0.0001527162,-633.48755,-235.85626,-609.9563,watch_2
26362971826719,0.19381863,-0.17168503,9.741779,-0.0004581486,-0.0003054324,0.0001527162,-633.48755,-235.85626,-609.9563,watch_2
26362976941823,0.19381863,-0.17168503,9.741779,-0.0004581486,-0.0003054324,0.0001527162,-633.48755,-235.85626,-609.9563,watch_2
26362992592031,0.19381863,-0.17168503,9.741779,-0.0004581486,-0.0003054324,0.0001527162,-634.7063,-236.175,-609.7688,watch_2
26363002591979,0.19381863,-0.17168503,9.741779,-0.0004581486,-0.0003054324,0.0001527162,-634.40625,-236.13751,-609.45,watch_2
26362996594844,0.19381863,-0.17168503,9.746565,-0.0004581486,-0.0003054324,0.0001527162,-634.40625,-236.13751,-609.45,watch_2
26362991479739,0.19381863,-0.17168503,9.746565,-0.0004581486,-0.0003054324,0.0001527162,-634.40625,-236.13751,-609.45,watch_2
26363012591927,0.19381863,-0.17168503,9.746565,-0.0004581486,-0.0003054324,0.0001527162,-632.73755,-235.74376,-610.4625,watch_2
26363022591875,0.19381863,-0.17168503,9.746565,-0.0004581486,-0.0003054324,0.0001527162,-635.34375,-236.85,-607.8938,watch_2
26363016217812,0.19381863,-0.18125631,9.75135,0.00076358096,0.0009162972,0.0001527162,-635.34375,-236.85,-607.8938,watch_2
26363011102708,0.19381863,-0.18125631,9.75135,0.00076358096,0.0009162972,0.0001527162,-635.34375,-236.85,-607.8938,watch_2
26363032591823,0.19381863,-0.18125631,9.75135,0.00076358096,0.0009162972,0.0001527162,-633.9938,-234.91876,-610.6875,watch_2
26363042591771,0.18424734,-0.16211374,9.741779,0.00076358096,-0.0003054324,0.0001527162,-634.16254,-236.6625,-609.9563,watch_2
26363030755729,0.18424734,-0.16211374,9.741779,0.00076358096,-0.0003054324,0.0001527162,-634.16254,-236.6625,-609.9563,watch_2
26363035870833,0.18424734,-0.16211374,9.741779,0.00076358096,-0.0003054324,0.0001527162,-634.16254,-236.6625,-609.9563,watch_2
26363052591719,0.18424734,-0.16211374,9.741779,0.00076358096,-0.0003054324,0.0001527162,-635.4,-235.68752,-609.9,watch_2
26363062591666,0.18424734,-0.16211374,9.741779,0.00076358096,-0.0003054324,0.0001527162,-635.47504,-236.25002,-610.59375,watch_2
26363055493802,0.18903299,-0.17647067,9.746565,0.00076358096,-0.0003054324,0.0001527162,-635.47504,-236.25002,-610.59375,watch_2
26363050378698,0.18903299,-0.17647067,9.746565,0.00076358096,-0.0003054324,0.0001527162,-635.47504,-236.25002,-610.59375,watch_2
26363072591614,0.18903299,-0.17647067,9.746565,0.00076358096,-0.0003054324,0.0001527162,-634.8375,-235.725,-611.4375,watch_2
26363082591562,0.18903299,-0.17168503,9.746565,0.00076358096,-0.0003054324,0.0001527162,-634.65,-237.00002,-610.275,watch_2
26363075116823,0.18903299,-0.17168503,9.746565,0.00076358096,-0.0003054324,0.0001527162,-634.65,-237.00002,-610.275,watch_2
26363070001719,0.18903299,-0.17168503,9.746565,0.00076358096,-0.0003054324,0.0001527162,-634.65,-237.00002,-610.275,watch_2
26363092591510,0.18903299,-0.17168503,9.746565,0.00076358096,-0.0003054324,0.0001527162,-634.65,-236.68126,-611.325,watch_2
26363102591458,0.18903299,-0.17168503,9.746565,0.00076358096,-0.0003054324,0.0001527162,-634.0875,-237.52501,-608.2688,watch_2
26363094769844,0.20338993,-0.16689938,9.741779,-0.0004581486,-0.0003054324,0.0001527162,-634.0875,-237.52501,-608.2688,watch_2
26363089654739,0.20338993,-0.16689938,9.741779,-0.0004581486,-0.0003054324,0.0001527162,-634.0875,-237.52501,-608.2688,watch_2
26363112591406,0.20338993,-0.16689938,9.741779,-0.0004581486,-0.0003054324,0.0001527162,-634.0688,-235.63126,-610.6313,watch_2
26363122591354,0.18903299,-0.17168503,9.75135,-0.0004581486,-0.0003054324,0.0001527162,-633.825,-236.6625,-608.025,watch_2
26363109277708,0.18903299,-0.17168503,9.75135,-0.0004581486,0.0009162972,0.0001527162,-633.825,-236.6625,-608.025,watch_2
26363114392812,0.18903299,-0.17168503,9.75135,-0.0004581486,0.0009162972,0.0001527162,-633.825,-236.6625,-608.025,watch_2
26363132591302,0.18903299,-0.17168503,9.75135,-0.0004581486,0.0009162972,0.0001527162,-633.0188,-235.8,-609.91876,watch_2
26363142591250,0.18903299,-0.16689938,9.741779,-0.0004581486,0.0009162972,0.0001527162,-632.17505,-236.26875,-609.46875,watch_2
26363128930729,0.18903299,-0.16689938,9.741779,0.00076358096,-0.0003054324,0.0001527162,-632.17505,-236.26875,-609.46875,watch_2
26363134045833,0.18903299,-0.16689938,9.741779,0.00076358096,-0.0003054324,0.0001527162,-632.17505,-236.26875,-609.46875,watch_2
26363152591198,0.18903299,-0.16689938,9.741779,0.00076358096,-0.0003054324,0.0001527162,-634.85626,-236.04376,-610.10626,watch_2
26363162591146,0.18903299,-0.16689938,9.741779,0.00076358096,-0.0003054324,0.0001527162,-633.4313,-235.6125,-608.53125,watch_2
26363148553698,0.17467605,-0.17647067,9.736994,-0.0016798781,0.0009162972,0.0001527162,-633.4313,-235.6125,-608.53125,watch_2
26363153668802,0.17467605,-0.17647067,9.736994,-0.0016798781,0.0009162972,0.0001527162,-633.4313,-235.6125,-608.53125,watch_2
26363172591094,0.17467605,-0.17647067,9.736994,-0.0016798781,0.0009162972,0.0001527162,-634.80005,-235.76251,-609.3938,watch_2
26363182591041,0.18903299,-0.17647067,9.75135,0.00076358096,-0.0003054324,0.0001527162,-634.80005,-235.76251,-609.6938,watch_2
26363168176719,0.18903299,-0.17647067,9.75135,0.00076358096,-0.0003054324,0.0001527162,-634.80005,-235.76251,-609.6938,watch_2
26363173291823,0.18903299,-0.17647067,9.75135,0.00076358096,-0.0003054324,0.0001527162,-634.80005,-235.76251,-609.6938,watch_2
26363192590989,0.18903299,-0.17647067,9.75135,0.00076358096,-0.0003054324,0.0001527162,-634.4625,-235.29376,-609.6938,watch_2
26363192944844,0.18903299,-0.17168503,9.746565,-0.0004581486,-0.0003054324,0.0001527162,-633.6375,-235.70625,-611.4375,watch_2
26363202590937,0.18903299,-0.17168503,9.746565,-0.0004581486,-0.0003054324,0.0001527162,-633.6375,-235.70625,-611.4375,watch_2
26363187829739,0.18903299,-0.17168503,9.746565,-0.0004581486,-0.0003054324,0.0001527162,-633.6375,-235.70625,-611.4375,watch_2
26363212590885,0.18903299,-0.17168503,9.746565,-0.0004581486,-0.0003054324,0.0001527162,-633.8813,-235.50002,-609.16876,watch_2
26363222590833,0.19381863,-0.17647067,9.75135,-0.0004581486,-0.0003054324,0.0001527162,-634.65,-238.59377,-608.5125,watch_2
26363212567812,0.19381863,-0.17647067,9.75135,-0.0004581486,-0.0003054324,0.0001527162,-634.65,-238.59377,-608.5125,watch_2
26363207452708,0.19381863,-0.17647067,9.75135,0.00076358096,0.0009162972,0.0001527162,-634.65,-238.59377,-608.5125,watch_2
26363232590781,0.19381863,-0.17647067,9.75135,0.00076358096,0.0009162972,0.0001527162,-632.98126,-236.64375,-610.2563,watch_2
26363232220833,0.19381863,-0.17647067,9.741779,-0.0004581486,-0.0003054324,-0.0010690134,-632.98126,-236.64375,-610.2563,watch_2
26363242590729,0.19381863,-0.17647067,9.741779,-0.0004581486,-0.0003054324,-0.0010690134,-632.8875,-235.93126,-609.30005,watch_2
26363227105729,0.19381863,-0.17647067,9.741779,-0.0004581486,-0.0003054324,-0.0010690134,-632.8875,-235.93126,-609.30005,watch_2
26363252590677,0.19381863,-0.17647067,9.741779,-0.0004581486,-0.0003054324,-0.0010690134,-635.36255,-236.51251,-611.1375,watch_2
26363251843802,0.18903299,-0.17168503,9.741779,0.00076358096,0.0009162972,0.0001527162,-635.36255,-236.51251,-611.1375,watch_2
26363246728698,0.18903299,-0.17168503,9.741779,0.00076358096,0.0009162972,0.0001527162,-635.36255,-236.51251,-611.1375,watch_2
26363262590625,0.18903299,-0.17168503,9.741779,0.00076358096,0.0009162972,0.0001527162,-634.8938,-236.45625,-610.35004,watch_2
26363272590573,0.18903299,-0.17168503,9.741779,0.00076358096,0.0009162972,0.0001527162,-634.8938,-236.45625,-610.35004,watch_2
26363271466823,0.19381863,-0.17647067,9.746565,-0.0004581486,0.0009162972,0.0001527162,-632.90625,-237.975,-606.7688,watch_2
26363282590521,0.18424734,-0.17168503,9.75135,-0.0004581486,0.0009162972,0.0001527162,-632.90625,-237.975,-606.7688,watch_2
26363292590469,0.18424734,-0.17168503,9.75135,-0.0004581486,0.0009162972,0.0001527162,-632.90625,-237.975,-606.7688,watch_2
26363266351719,0.19381863,-0.17647067,9.746565,-0.0004581486,0.0009162972,0.0001527162,-632.90625,-237.975,-606.7688,watch_2
26363291119844,0.18424734,-0.17168503,9.75135,-0.0004581486,0.0009162972,0.0001527162,-632.90625,-237.975,-606.7688,watch_2
26363286004739,0.18424734,-0.17168503,9.75135,0.00076358096,-0.0003054324,0.0001527162,-631.61255,-237.1125,-606.7125,watch_2
26363302590416,0.18424734,-0.17168503,9.75135,0.00076358096,-0.0003054324,0.0001527162,-631.61255,-237.1125,-606.7125,watch_2
26363312590364,0.18424734,-0.17168503,9.75135,0.00076358096,-0.0003054324,0.0001527162,-630.8813,-238.57501,-606.6375,watch_2
26363310742812,0.18424734,-0.17168503,9.736994,-0.0004581486,-0.0003054324,0.0001527162,-630.8813,-238.57501,-606.6375,watch_2
26363305627708,0.18424734,-0.17168503,9.736994,-0.0004581486,-0.0003054324,0.0001527162,-631.875,-239.56876,-605.4938,watch_2
26363322590312,0.18424734,-0.17168503,9.736994,-0.0004581486,-0.0003054324,0.0001527162,-631.875,-239.56876,-605.4938,watch_2
26363332590260,0.18424734,-0.17168503,9.736994,-0.0004581486,-0.0003054324,0.0001527162,-630.6938,-238.25626,-606.48755,watch_2
26363325280729,0.18424734,-0.17168503,9.736994,0.00076358096,-0.0003054324,0.0001527162,-630.6938,-238.25626,-606.48755,watch_2
26363342590208,0.19381863,-0.16211374,9.746565,0.00076358096,-0.0003054324,0.0001527162,-631.2563,-237.90001,-607.1813,watch_2
26363330395833,0.19381863,-0.16211374,9.746565,0.00076358096,-0.0003054324,0.0001527162,-631.2563,-237.90001,-607.1813,watch_2
26363352590156,0.19381863,-0.16211374,9.746565,0.00076358096,-0.0003054324,0.0001527162,-634.95,-238.31252,-610.03125,watch_2
26363350018802,0.18903299,-0.17647067,9.736994,0.00076358096,-0.0003054324,0.0001527162,-634.95,-238.31252,-610.03125,watch_2
26363344903698,0.18903299,-0.17647067,9.736994,-0.0004581486,0.0009162972,0.0001527162,-634.95,-238.31252,-610.03125,watch_2
26363362590104,0.18903299,-0.17647067,9.736994,-0.0004581486,0.0009162972,0.0001527162,-634.4625,-236.55,-610.1438,watch_2
26363372590052,0.18903299,-0.17647067,9.736994,-0.0004581486,0.0009162972,0.0001527162,-631.6313,-237.07501,-608.17505,watch_2
26363369671823,0.1794617,-0.17168503,9.75135,0.00076358096,0.0009162972,0.0001527162,-631.6313,-237.07501,-608.17505,watch_2
26363364556719,0.1794617,-0.17168503,9.75135,0.00076358096,0.0009162972,0.0001527162,-631.6313,-237.07501,-608.17505,watch_2
26363382590000,0.1794617,-0.17168503,9.75135,0.00076358096,0.0009162972,0.0001527162,-633.91876,-235.78127,-609.73126,watch_2
26363392589948,0.1794617,-0.17168503,9.75135,0.00076358096,0.0009162972,0.0001527162,-633.15,-236.00626,-607.575,watch_2
26363389294844,0.19860429,-0.16689938,9.75135,-0.0004581486,-0.0003054324,0.0001527162,-633.15,-236.00626,-607.575,watch_2
26363384179739,0.19860429,-0.16689938,9.75135,-0.0004581486,-0.0003054324,0.0001527162,-633.15,-236.00626,-607.575,watch_2
26363402589896,0.19860429,-0.16689938,9.75135,-0.0004581486,-0.0003054324,0.0001527162,-632.41876,-235.89375,-608.9625,watch_2
26363412589844,0.19860429,-0.16689938,9.75135,-0.0004581486,-0.0003054324,0.0001527162,-634.0125,-236.49376,-610.3875,watch_2
26363408917812,0.19381863,-0.17647067,9.746565,-0.0004581486,-0.0003054324,0.0001527162,-634.0125,-236.49376,-610.3875,watch_2
26363403802708,0.19381863,-0.17647067,9.746565,-0.0004581486,-0.0003054324,0.0001527162,-634.0125,-236.49376,-610.3875,watch_2
26363422589791,0.19381863,-0.17647067,9.746565,-0.0004581486,-0.0003054324,0.0001527162,-634.0125,-236.49376,-610.3875,watch_2
26363432589739,0.19381863,-0.17647067,9.746565,-0.0004581486,-0.0003054324,0.0001527162,-634.6313,-237.0375,-608.5125,watch_2
26363423455729,0.18424734,-0.16689938,9.741779,-0.0004581486,-0.0003054324,0.0001527162,-634.6313,-237.0375,-608.5125,watch_2
26363428570833,0.18424734,-0.16689938,9.741779,-0.0004581486,-0.0003054324,0.0001527162,-634.6313,-237.0375,-608.5125,watch_2
26363442589687,0.18424734,-0.16689938,9.741779,-0.0004581486,-0.0003054324,0.0001527162,-634.6313,-235.59377,-609.54376,watch_2
26363452589635,0.18424734,-0.16689938,9.741779,-0.0004581486,-0.0003054324,0.0001527162,-633.8813,-236.60626,-610.95,watch_2
26363448193802,0.1794617,-0.17168503,9.741779,-0.0004581486,-0.0003054324,0.0001527162,-633.8813,-236.60626,-610.95,watch_2
26363443078698,0.1794617,-0.17168503,9.741779,-0.0004581486,0.0009162972,0.0001527162,-633.8813,-236.60626,-610.95,watch_2
26363462589583,0.1794617,-0.17168503,9.741779,-0.0004581486,0.0009162972,0.0001527162,-634.0875,-237.52501,-608.2688,watch_2
26363472589531,0.1794617,-0.17168503,9.741779,-0.0004581486,0.0009162972,0.0001527162,-632.8875,-237.50626,-608.5688,watch_2
26363462731719,0.18424734,-0.17168503,9.756136,-0.0004581486,0.0009162972,0.0001527162,-634.85626,-237.93752,-607.1438,watch_2
26363482589479,0.18424734,-0.17168503,9.756136,-0.0004581486,0.0009162972,0.0001527162,-634.85626,-237.93752,-607.1438,watch_2
26363467846823,0.18424734,-0.17168503,9.756136,-0.0004581486,0.0009162972,0.0001527162,-634.85626,-237.93752,-607.1438,watch_2
26363482354739,0.18424734,-0.17168503,9.756136,-0.0004581486,-0.0003054324,0.0001527162,-633.78754,-237.16876,-610.29376,watch_2
26363492589427,0.18424734,-0.17168503,9.756136,-0.0004581486,-0.0003054324,0.0001527162,-633.78754,-237.16876,-610.29376,watch_2
26363502589375,0.18903299,-0.17168503,9.741779,-0.0004581486,-0.0003054324,0.0001527162,-633.9938,-236.83125,-607.8938,watch_2
26363487469844,0.18903299,-0.17168503,9.741779,-0.0004581486,-0.0003054324,0.0001527162,-633.9938,-236.83125,-607.8938,watch_2
26363512589323,0.18903299,-0.17168503,9.741779,-0.0004581486,-0.0003054324,0.0001527162,-633.67505,-237.58125,-609.8063,watch_2
26363507092812,0.18903299,-0.18125631,9.746565,-0.0004581486,-0.0003054324,0.0001527162,-633.67505,-237.58125,-609.8063,watch_2
26363501977708,0.18903299,-0.18125631,9.746565,-0.0004581486,-0.0003054324,0.0001527162,-633.67505,-237.58125,-609.8063,watch_2
26363522589271,0.18903299,-0.18125631,9.746565,-0.0004581486,-0.0003054324,0.0001527162,-634.2563,-237.69376,-608.41876,watch_2
26363532589219,0.18903299,-0.18125631,9.746565,-0.0004581486,-0.0003054324,0.0001527162,-634.91254,-236.45625,-610.65,watch_2
26363526745833,0.20338993,-0.15732808,9.741779,-0.0004581486,-0.0003054324,0.0001527162,-634.91254,-236.45625,-610.65,watch_2
26363521630729,0.20338993,-0.15732808,9.741779,-0.0004581486,-0.0003054324,0.0001527162,-634.91254,-236.45625,-610.65,watch_2
26363542589166,0.20338993,-0.15732808,9.741779,-0.0004581486,-0.0003054324,0.0001527162,-633.16876,-237.58125,-606.84375,watch_2
26363552589114,0.20338993,-0.15732808,9.741779,-0.0004581486,-0.0003054324,0.0001527162,-635.0813,-236.94376,-609.16876,watch_2
26363541253698,0.19381863,-0.17647067,9.746565,-0.0004581486,-0.0003054324,-0.0010690134,-635.0813,-236.94376,-609.16876,watch_2
26363546368802,0.19381863,-0.17647067,9.746565,-0.0004581486,-0.0003054324,-0.0010690134,-635.0813,-236.94376,-609.16876,watch_2
26363562589062,0.19381863,-0.17647067,9.746565,-0.0004581486,-0.0003054324,-0.0010690134,-634.4625,-236.55,-610.1438,watch_2
26363572589010,0.19381863,-0.17647067,9.746565,-0.0004581486,-0.0003054324,-0.0010690134,-633.6188,-235.425,-611.47504,watch_2
26363566021823,0.18903299,-0.17168503,9.746565,-0.0004581486,-0.0003054324,-0.0010690134,-633.6188,-235.425,-611.47504,watch_2
26363560906719,0.18903299,-0.17168503,9.746565,-0.0004581486,0.0009162972,0.0001527162,-635.8313,-236.71877,-610.575,watch_2
26363582588958,0.18903299,-0.17168503,9.746565,-0.0004581486,0.0009162972,0.0001527162,-635.8313,-236.71877,-610.575,watch_2
26363592588906,0.18903299,-0.17168503,9.746565,-0.0004581486,0.0009162972,0.0001527162,-633.6375,-236.02501,-609.67505,watch_2
26363585644844,0.19860429,-0.18125631,9.7609215,-0.0004581486,0.0009162972,0.0001527162,-633.6375,-236.02501,-609.67505,watch_2
26363580529739,0.19860429,-0.18125631,9.7609215,-0.0004581486,0.0009162972,0.0001527162,-633.6375,-236.02501,-609.67505,watch_2
26363602588854,0.19860429,-0.18125631,9.7609215,-0.0004581486,0.0009162972,0.0001527162,-633.60004,-236.86876,-610.16254,watch_2
26363612588802,0.19860429,-0.18125631,9.7609215,-0.0004581486,0.0009162972,0.0001527162,-633.84375,-236.32501,-610.23755,watch_2
26363605267812,0.18903299,-0.17168503,9.736994,-0.0004581486,0.0009162972,0.0001527162,-633.84375,-236.32501,-610.23755,watch_2
26363600152708,0.18903299,-0.17168503,9.736994,-0.0004581486,-0.0003054324,0.0001527162,-633.84375,-236.32501,-610.23755,watch_2
26363622588750,0.18903299,-0.17168503,9.736994,-0.0004581486,-0.0003054324,0.0001527162,-634.2,-236.94376,-609.9375,watch_2
26363632588698,0.18903299,-0.17168503,9.736994,-0.0004581486,-0.0003054324,0.0001527162,-633.78754,-237.4875,-608.23126,watch_2
26363624920833,0.19381863,-0.17647067,9.746565,-0.0004581486,-0.0003054324,0.0001527162,-633.78754,-237.4875,-608.23126,watch_2
26363642588646,0.19381863,-0.17647067,9.746565,0.00076358096,-0.0003054324,0.0001527162,-631.53754,-236.38126,-607.21875,watch_2
26363619805729,0.19381863,-0.17647067,9.746565,0.00076358096,-0.0003054324,0.0001527162,-631.53754,-236.38126,-607.21875,watch_2
26363652588594,0.19381863,-0.17647067,9.746565,0.00076358096,-0.0003054324,0.0001527162,-631.61255,-238.20001,-607.91254,watch_2
26363639428698,0.19860429,-0.18125631,9.741779,-0.0004581486,-0.0003054324,-0.0010690134,-631.61255,-238.20001,-607.91254,watch_2
26363644543802,0.19860429,-0.18125631,9.741779,-0.0004581486,-0.0003054324,-0.0010690134,-631.61255,-238.20001,-607.91254,watch_2
26363662588541,0.19860429,-0.18125631,9.741779,-0.0004581486,-0.0003054324,-0.0010690134,-631.23755,-237.45001,-607.95,watch_2
26363672588489,0.19860429,-0.18125631,9.741779,-0.0004581486,-0.0003054324,-0.0010690134,-632.47504,-237.90001,-607.7438,watch_2
26363664196823,0.19860429,-0.17168503,9.741779,-0.0004581486,-0.0003054324,-0.0010690134,-632.47504,-237.90001,-607.7438,watch_2
26363659081719,0.19860429,-0.17168503,9.741779,-0.0004581486,0.0009162972,0.0001527162,-632.47504,-237.90001,-607.7438,watch_2
26363682588437,0.19860429,-0.17168503,9.741779,-0.0004581486,0.0009162972,0.0001527162,-633.97504,-237.63751,-609.41254,watch_2
26363683819844,0.18903299,-0.17168503,9.75135,-0.0004581486,0.0009162972,0.0001527162,-631.875,-236.55,-607.66876,watch_2
26363692588385,0.18903299,-0.17168503,9.75135,-0.0004581486,0.0009162972,0.0001527162,-631.875,-236.55,-607.66876,watch_2
26363678704739,0.18903299,-0.17168503,9.75135,0.00076358096,0.0009162972,0.0001527162,-631.875,-236.55,-607.66876,watch_2
26363702588333,0.18903299,-0.17168503,9.75135,0.00076358096,0.0009162972,0.0001527162,-631.29376,-236.60626,-608.17505,watch_2
26363698358698,0.20338993,-0.16689938,9.746565,-0.0004581486,-0.0003054324,0.0001527162,-632.1375,-237.4125,-608.4938,watch_2
26363712588281,0.20338993,-0.16689938,9.746565,0.00076358096,0.0009162972,0.0001527162,-632.1375,-237.4125,-608.4938,watch_2
26363703473802,0.20338993,-0.16689938,9.746565,-0.0004581486,-0.0003054324,0.0001527162,-632.1375,-237.4125,-608.4938,watch_2
26363722588229,0.20338993,-0.16689938,9.746565,-0.0004581486,-0.0003054324,0.0001527162,-631.65,-237.37502,-607.125,watch_2
26363723095833,0.18424734,-0.16689938,9.746565,-0.0004581486,-0.0003054324,-0.0010690134,-633.6938,-238.03127,-608.60626,watch_2
26363717980729,0.18424734,-0.16689938,9.746565,-0.0004581486,-0.0003054324,-0.0010690134,-633.6938,-238.03127,-608.60626,watch_2
26363732588177,0.18424734,-0.16689938,9.746565,-0.0004581486,-0.0003054324,-0.0010690134,-633.6938,-238.03127,-608.60626,watch_2
26363742588125,0.18424734,-0.16689938,9.746565,-0.0004581486,-0.0003054324,-0.0010690134,-633.5625,-236.90627,-607.96875,watch_2
26363752588073,0.18424734,-0.16689938,9.746565,-0.0004581486,-0.0003054324,-0.0010690134,-632.5688,-237.65627,-606.91876,watch_2
26363742718802,0.20338993,-0.17647067,9.75135,-0.0004581486,-0.0003054324,-0.0010690134,-632.5688,-237.65627,-606.91876,watch_2
26363737603698,0.20338993,-0.17647067,9.75135,-0.0004581486,-0.0003054324,0.0001527162,-632.5688,-237.65627,-606.91876,watch_2
26363762588021,0.20338993,-0.17647067,9.75135,-0.0004581486,-0.0003054324,0.0001527162,-633.86255,-236.62502,-609.91876,watch_2
26363762371823,0.20338993,-0.16689938,9.741779,0.00076358096,-0.0003054324,0.0001527162,-633.86255,-236.62502,-609.91876,watch_2
26363757256719,0.20338993,-0.16689938,9.741779,0.00076358096,-0.0003054324,0.0001527162,-633.86255,-236.62502,-609.91876,watch_2
26363772587969,0.20338993,-0.16689938,9.741779,0.00076358096,-0.0003054324,0.0001527162,-633.9938,-238.08751,-608.6438,watch_2
26363782587916,0.20338993,-0.16689938,9.741779,0.00076358096,-0.0003054324,0.0001527162,-633.35626,-237.39375,-609.9375,watch_2
26363781994844,0.18903299,-0.16689938,9.741779,0.00076358096,-0.0003054324,0.0001527162,-633.35626,-237.39375,-609.9375,watch_2
26363792587864,0.18903299,-0.16689938,9.741779,-0.0004581486,0.0009162972,0.0001527162,-635.34375,-236.53127,-609.67505,watch_2
26363776879739,0.18903299,-0.16689938,9.741779,-0.0004581486,0.0009162972,0.0001527162,-635.34375,-236.53127,-609.67505,watch_2
26363802587812,0.18903299,-0.16689938,9.741779,-0.0004581486,0.0009162972,0.0001527162,-635.23126,-235.36876,-610.78125,watch_2
26363801648802,0.17467605,-0.17647067,9.75135,-0.0004581486,0.0009162972,0.0001527162,-635.23126,-235.36876,-610.78125,watch_2
26363796533698,0.17467605,-0.17647067,9.75135,0.00076358096,-0.0003054324,0.0001527162,-635.23126,-235.36876,-610.78125,watch_2
26363812587760,0.17467605,-0.17647067,9.75135,0.00076358096,-0.0003054324,0.0001527162,-632.4,-235.57501,-610.0125,watch_2
26363822587708,0.17467605,-0.17647067,9.75135,0.00076358096,-0.0003054324,0.0001527162,-633.9938,-236.51251,-609.075,watch_2
26363816155729,0.18424734,-0.17647067,9.736994,-0.0004581486,-0.0003054324,0.0001527162,-633.9938,-236.51251,-609.075,watch_2
26363821270833,0.18424734,-0.17647067,9.736994,-0.0004581486,-0.0003054324,0.0001527162,-633.9938,-236.51251,-609.075,watch_2
26363832587656,0.18424734,-0.17647067,9.736994,-0.0004581486,-0.0003054324,0.0001527162,-633.60004,-236.86876,-609.86255,watch_2
26363842587604,0.18424734,-0.17647067,9.736994,-0.0004581486,-0.0003054324,0.0001527162,-635.6813,-236.86876,-609.67505,watch_2
26363840893802,0.18903299,-0.17647067,9.746565,-0.0004581486,-0.0003054324,0.0001527162,-635.6813,-236.86876,-609.67505,watch_2
26363835778698,0.18903299,-0.17647067,9.746565,0.00076358096,-0.0003054324,0.0001527162,-635.6813,-236.86876,-609.67505,watch_2
26363852587552,0.18903299,-0.17647067,9.746565,0.00076358096,-0.0003054324,0.0001527162,-635.775,-237.88126,-608.8688,watch_2
26363862587500,0.18903299,-0.17168503,9.736994,0.00076358096,-0.0003054324,0.0001527162,-633.3188,-237.1125,-609.9563,watch_2
26363860547812,0.18903299,-0.17168503,9.736994,0.00076358096,-0.0003054324,0.0001527162,-633.3188,-237.1125,-609.9563,watch_2
26363855432708,0.18903299,-0.17168503,9.736994,-0.0004581486,-0.0003054324,0.0001527162,-633.3188,-237.1125,-609.9563,watch_2
26363872587448,0.18903299,-0.17168503,9.736994,-0.0004581486,-0.0003054324,0.0001527162,-634.4625,-236.85,-609.09375,watch_2
26363882587396,0.18903299,-0.17168503,9.736994,-0.0004581486,-0.0003054324,0.0001527162,-634.59375,-236.7375,-608.8313,watch_2
26363880169844,0.19381863,-0.18604197,9.741779,-0.0004581486,0.0009162972,0.0001527162,-634.59375,-236.7375,-608.8313,watch_2
26363875054739,0.19381863,-0.18604197,9.741779,-0.0004581486,0.0009162972,0.0001527162,-634.59375,-236.7375,-608.8313,watch_2
26363892587344,0.19381863,-0.18604197,9.741779,-0.0004581486,0.0009162972,0.0001527162,-632.6438,-235.5375,-606.9938,watch_2
26363902587291,0.19381863,-0.18604197,9.741779,-0.0004581486,0.0009162972,0.0001527162,-634.16254,-236.64375,-610.2563,watch_2
26363899823802,0.18903299,-0.17168503,9.756136,0.00076358096,-0.0003054324,0.0001527162,-634.16254,-236.64375,-610.2563,watch_2
26363894708698,0.18903299,-0.17168503,9.756136,0.00076358096,-0.0003054324,0.0001527162,-634.16254,-236.64375,-610.2563,watch_2
26363912587239,0.18903299,-0.17168503,9.756136,0.00076358096,-0.0003054324,0.0001527162,-633.9,-238.50002,-608.4375,watch_2
26363922587187,0.18903299,-0.17168503,9.756136,0.00076358096,-0.0003054324,0.0001527162,-633.075,-236.21251,-610.4625,watch_2
26363919445833,0.19381863,-0.17647067,9.732208,-0.0004581486,0.0009162972,0.0001527162,-633.075,-236.21251,-610.4625,watch_2
26363914330729,0.19381863,-0.17647067,9.732208,-0.0004581486,0.0009162972,0.0001527162,-633.075,-236.21251,-610.4625,watch_2
26363932587135,0.19381863,-0.17647067,9.732208,-0.0004581486,0.0009162972,0.0001527162,-635.7563,-236.30626,-609.30005,watch_2
26363942587083,0.19381863,-0.17647067,9.732208,-0.0004581486,0.0009162972,0.0001527162,-633.9938,-236.51251,-609.375,watch_2
26363939068802,0.18424734,-0.17168503,9.756136,-0.0004581486,-0.0003054324,0.0001527162,-633.9938,-236.51251,-609.375,watch_2
26363933953698,0.18424734,-0.17168503,9.756136,-0.0004581486,-0.0003054324,0.0001527162,-633.9938,-236.51251,-609.375,watch_2
26363952587031,0.18424734,-0.17168503,9.756136,-0.0004581486,-0.0003054324,0.0001527162,-633.7125,-235.18126,-610.35004,watch_2
26363962586979,0.18424734,-0.17168503,9.756136,-0.0004581486,-0.0003054324,0.0001527162,-633.7125,-235.18126,-610.35004,watch_2
26363958722812,0.19860429,-0.18125631,9.732208,-0.0004581486,-0.0003054324,0.0001527162,-633.7125,-235.18126,-610.35004,watch_2
26363953607708,0.19860429,-0.18125631,9.732208,-0.0004581486,-0.0003054324,0.0001527162,-633.7125,-235.18126,-610.35004,watch_2
26363972586927,0.19860429,-0.18125631,9.732208,-0.0004581486,-0.0003054324,0.0001527162,-634.8938,-237.58125,-611.1188,watch_2
26363982586875,0.19860429,-0.18125631,9.732208,-0.0004581486,-0.0003054324,0.0001527162,-634.16254,-236.68126,-609.22504,watch_2
26363978344844,0.18903299,-0.17647067,9.75135,0.00076358096,0.0009162972,0.0001527162,-634.16254,-236.68126,-609.22504,watch_2
26363973229739,0.18903299,-0.17647067,9.75135,0.00076358096,0.0009162972,0.0001527162,-634.16254,-236.68126,-609.22504,watch_2
26363992586823,0.18903299,-0.17647067,9.75135,0.00076358096,0.0009162972,0.0001527162,-633.60004,-236.86876,-610.16254,watch_2
26364002586771,0.18903299,-0.17647067,9.75135,0.00076358096,0.0009162972,0.0001527162,-635.6813,-235.76251,-608.625,watch_2
26363997998802,0.20338993,-0.16689938,9.746565,0.00076358096,-0.0015271619,0.0001527162,-635.6813,-235.76251,-608.625,watch_2
26363992883698,0.20338993,-0.16689938,9.746565,0.00076358096,-0.0015271619,0.0001527162,-635.6813,-235.76251,-608.625,watch_2
26364012586719,0.20338993,-0.16689938,9.746565,0.00076358096,-0.0015271619,0.0001527162,-634.53754,-237.26251,-610.3688,watch_2
26364022586666,0.20338993,-0.16689938,9.746565,0.00076358096,-0.0015271619,0.0001527162,-632.9438,-236.3625,-609.9938,watch_2
26364012505729,0.18903299,-0.17647067,9.732208,0.00076358096,0.0009162972,0.0001527162,-632.9438,-236.3625,-609.9938,watch_2
26364017620833,0.18903299,-0.17647067,9.732208,0.00076358096,0.0009162972,0.0001527162,-632.9438,-236.3625,-609.9938,watch_2
26364032586614,0.18903299,-0.17647067,9.732208,0.00076358096,0.0009162972,0.0001527162,-634.125,-236.40001,-608.8125,watch_2
26364042586562,0.18903299,-0.17647067,9.732208,0.00076358096,0.0009162972,0.0001527162,-633.2063,-237.54376,-609.03754,watch_2
26364037274844,0.18424734,-0.17647067,9.756136,0.00076358096,0.0009162972,0.0001527162,-633.2063,-237.54376,-609.03754,watch_2
26364032159739,0.18424734,-0.17647067,9.756136,-0.0004581486,-0.0003054324,0.0001527162,-633.2063,-237.54376,-609.03754,watch_2
26364052586510,0.18424734,-0.17647067,9.756136,-0.0004581486,-0.0003054324,0.0001527162,-634.95,-237.0375,-610.0125,watch_2
26364062586458,0.18424734,-0.17647067,9.756136,-0.0004581486,-0.0003054324,0.0001527162,-634.95,-237.0375,-610.0125,watch_2
26364056897812,0.18424734,-0.17168503,9.736994,-0.0004581486,-0.0003054324,0.0001527162,-634.95,-237.0375,-610.0125,watch_2
26364051782708,0.18424734,-0.17168503,9.736994,-0.0004581486,-0.0003054324,0.0001527162,-634.95,-237.0375,-610.0125,watch_2
26364072586406,0.18424734,-0.17168503,9.736994,-0.0004581486,-0.0003054324,0.0001527162,-635.66254,-236.56876,-610.1438,watch_2
26364082586354,0.18424734,-0.17168503,9.736994,-0.0004581486,-0.0003054324,0.0001527162,-632.98126,-236.62502,-610.98755,watch_2
26364076519844,0.19381863,-0.17647067,9.736994,-0.0004581486,-0.0003054324,0.0001527162,-632.98126,-236.62502,-610.98755,watch_2
26364071404739,0.19381863,-0.17647067,9.736994,-0.0004581486,-0.0003054324,-0.0010690134,-632.98126,-236.62502,-610.98755,watch_2
26364092586302,0.19381863,-0.17647067,9.736994,-0.0004581486,-0.0003054324,-0.0010690134,-632.98126,-236.62502,-610.98755,watch_2
26364102586250,0.19381863,-0.17647067,9.736994,-0.0004581486,-0.0003054324,-0.0010690134,-633.91876,-235.78127,-610.16254,watch_2
26364091058698,0.19381863,-0.16211374,9.741779,-0.0004581486,-0.0015271619,0.0001527162,-633.91876,-235.78127,-610.16254,watch_2
26364096173802,0.19381863,-0.16211374,9.741779,-0.0004581486,-0.0015271619,0.0001527162,-633.91876,-235.78127,-610.16254,watch_2
26364112586198,0.19381863,-0.16211374,9.741779,-0.0004581486,-0.0015271619,0.0001527162,-633.9375,-237.33751,-609.4313,watch_2
26364122586146,0.19381863,-0.16211374,9.741779,-0.0004581486,-0.0015271619,0.0001527162,-633.65625,-236.00626,-610.8375,watch_2
26364115796823,0.18903299,-0.16689938,9.741779,0.00076358096,0.0021380268,0.0001527162,-633.65625,-236.00626,-610.8375,watch_2
26364110681719,0.18903299,-0.16689938,9.741779,0.00076358096,0.0021380268,0.0001527162,-633.65625,-236.00626,-610.8375,watch_2
26364132586094,0.18903299,-0.16689938,9.741779,0.00076358096,0.0021380268,0.0001527162,-632.9625,-236.64375,-609.97504,watch_2
26364142586041,0.18903299,-0.16689938,9.741779,0.00076358096,0.0021380268,0.0001527162,-635.5125,-237.01875,-608.04376,watch_2
26364130334739,0.18903299,-0.16689938,9.741779,-0.0004581486,-0.0003054324,0.0001527162,-635.5125,-237.01875,-608.04376,watch_2
26364135449844,0.18424734,-0.17168503,9.732208,-0.0004581486,-0.0003054324,0.0001527162,-635.5125,-237.01875,-608.04376,watch_2
26364152585989,0.18424734,-0.17168503,9.732208,-0.0004581486,-0.0003054324,0.0001527162,-633.5063,-236.32501,-608.4563,watch_2
26364155072812,0.19381863,-0.15732808,9.741779,-0.0004581486,-0.0003054324,0.0001527162,-633.825,-235.06876,-609.48755,watch_2
26364162585937,0.19381863,-0.15732808,9.741779,-0.0004581486,-0.0003054324,0.0001527162,-633.825,-235.06876,-609.48755,watch_2
26364172585885,0.19381863,-0.15732808,9.741779,-0.0004581486,-0.0003054324,0.0001527162,-634.95,-237.05626,-609.28125,watch_2
26364149957708,0.19381863,-0.15732808,9.741779,-0.0004581486,-0.0003054324,0.0001527162,-634.95,-237.05626,-609.28125,watch_2
26364182585833,0.19381863,-0.15732808,9.741779,-0.0004581486,-0.0003054324,0.0001527162,-633.0,-235.81876,-608.73755,watch_2
26364174694844,0.19381863,-0.18604197,9.746565,-0.0004581486,-0.0003054324,0.0001527162,-633.0,-235.81876,-608.73755,watch_2
26364169579739,0.19381863,-0.18604197,9.746565,-0.0004581486,0.0009162972,0.0001527162,-633.0,-235.81876,-608.73755,watch_2
26364192585781,0.19381863,-0.18604197,9.746565,-0.0004581486,0.0009162972,0.0001527162,-634.125,-237.80626,-608.9625,watch_2
26364202585729,0.19381863,-0.18604197,9.746565,-0.0004581486,0.0009162972,0.0001527162,-634.125,-237.80626,-608.9625,watch_2
26364194348802,0.19381863,-0.18604197,9.741779,-0.0004581486,0.0009162972,0.0001527162,-634.125,-237.80626,-608.9625,watch_2
26364189233698,0.19381863,-0.18604197,9.741779,0.00076358096,-0.0015271619,-0.0010690134,-634.125,-237.80626,-608.9625,watch_2
26364212585677,0.19381863,-0.18604197,9.741779,0.00076358096,-0.0015271619,-0.0010690134,-634.80005,-236.86876,-610.4438,watch_2
26364222585625,0.19381863,-0.18604197,9.741779,0.00076358096,-0.0015271619,-0.0010690134,-633.0,-237.1125,-608.47504,watch_2
26364213971823,0.18424734,-0.17647067,9.732208,0.00076358096,-0.0015271619,-0.0010690134,-633.0,-237.1125,-608.47504,watch_2
26364208856719,0.18424734,-0.17647067,9.732208,-0.0004581486,0.0009162972,-0.0010690134,-633.0,-237.1125,-608.47504,watch_2
26364232585573,0.18424734,-0.17647067,9.732208,-0.0004581486,0.0009162972,-0.0010690134,-632.4,-237.4875,-606.46875,watch_2
26364242585521,0.18424734,-0.17647067,9.732208,-0.0004581486,0.0009162972,-0.0010690134,-632.6813,-238.35,-608.025,watch_2
26364233624844,0.19860429,-0.17168503,9.75135,-0.0004581486,0.0009162972,-0.0010690134,-632.6813,-238.35,-608.025,watch_2
26364228509739,0.19860429,-0.17168503,9.75135,0.00076358096,-0.0003054324,0.0001527162,-632.6813,-238.35,-608.025,watch_2
26364252585469,0.19860429,-0.17168503,9.75135,0.00076358096,-0.0003054324,0.0001527162,-633.6188,-235.74376,-609.6938,watch_2
26364262585416,0.18903299,-0.17168503,9.727423,0.00076358096,-0.0003054324,0.0001527162,-632.025,-236.40001,-608.5688,watch_2
26364253247812,0.18903299,-0.17168503,9.727423,0.00076358096,-0.0003054324,0.0001527162,-632.025,-236.40001,-608.5688,watch_2
26364248132708,0.18903299,-0.17168503,9.727423,-0.0004581486,0.0009162972,0.0001527162,-632.025,-236.40001,-608.5688,watch_2
26364272585364,0.18903299,-0.17168503,9.727423,-0.0004581486,0.0009162972,0.0001527162,-636.91876,-238.725,-609.3375,watch_2
26364282585312,0.18903299,-0.17168503,9.727423,-0.0004581486,0.0009162972,0.0001527162,-633.54376,-236.58751,-609.16876,watch_2
26364272870833,0.1794617,-0.18125631,9.746565,-0.0004581486,-0.0003054324,0.0001527162,-633.54376,-236.58751,-609.16876,watch_2
26364267755729,0.1794617,-0.18125631,9.746565,-0.0004581486,-0.0003054324,0.0001527162,-633.54376,-236.58751,-609.16876,watch_2
26364292585260,0.1794617,-0.18125631,9.746565,-0.0004581486,-0.0003054324,0.0001527162,-632.3813,-236.70001,-610.03125,watch_2
26364292523802,0.18424734,-0.16689938,9.736994,-0.0004581486,-0.0003054324,0.0001527162,-633.525,-236.2875,-610.21875,watch_2
26364302585208,0.18424734,-0.16689938,9.736994,-0.0004581486,-0.0003054324,0.0001527162,-633.525,-236.2875,-610.21875,watch_2
26364312585156,0.18424734,-0.16689938,9.736994,-0.0004581486,-0.0015271619,0.0001527162,-631.98755,-237.225,-609.35626,watch_2
26364287408698,0.18424734,-0.16689938,9.736994,-0.0004581486,-0.0015271619,0.0001527162,-631.98755,-237.225,-609.35626,watch_2
26364312146823,0.18903299,-0.17168503,9.741779,-0.0004581486,0.0021380268,0.0001527162,-631.98755,-237.225,-609.35626,watch_2
26364307031719,0.18903299,-0.17168503,9.741779,-0.0004581486,0.0021380268,0.0001527162,-631.98755,-237.225,-609.35626,watch_2
26364322585104,0.18903299,-0.17168503,9.741779,-0.0004581486,0.0021380268,0.0001527162,-635.6438,-236.58751,-609.41254,watch_2
26364332585052,0.18903299,-0.17168503,9.741779,-0.0004581486,0.0021380268,0.0001527162,-634.95,-237.05626,-609.28125,watch_2
26364331799844,0.19381863,-0.17168503,9.756136,-0.0004581486,-0.0003054324,-0.0010690134,-634.95,-237.05626,-609.28125,watch_2
26364326684739,0.19381863,-0.17168503,9.756136,-0.0004581486,-0.0003054324,-0.0010690134,-634.95,-237.05626,-609.28125,watch_2
26364342585000,0.19381863,-0.17168503,9.756136,-0.0004581486,-0.0003054324,-0.0010690134,-633.75,-235.6125,-609.5813,watch_2
26364352584948,0.19381863,-0.17168503,9.756136,-0.0004581486,-0.0003054324,-0.0010690134,-633.6188,-235.74376,-609.6938,watch_2
26364351422812,0.18903299,-0.18125631,9.732208,-0.0004581486,-0.0003054324,-0.0010690134,-633.6188,-235.74376,-609.6938,watch_2
26364346307708,0.18903299,-0.18125631,9.732208,-0.0004581486,-0.0003054324,0.0001527162,-633.6188,-235.74376,-609.6938,watch_2
26364362584896,0.18903299,-0.18125631,9.732208,-0.0004581486,-0.0003054324,0.0001527162,-634.80005,-238.46251,-609.1313,watch_2
26364372584844,0.18903299,-0.18125631,9.732208,-0.0004581486,-0.0003054324,0.0001527162,-632.92505,-236.70001,-607.05005,watch_2
26364371075833,0.1794617,-0.17168503,9.7609215,0.00076358096,0.0009162972,0.0001527162,-632.92505,-236.70001,-607.05005,watch_2
26364365960729,0.1794617,-0.17168503,9.7609215,0.00076358096,0.0009162972,0.0001527162,-632.92505,-236.70001,-607.05005,watch_2
26364382584791,0.1794617,-0.17168503,9.7609215,0.00076358096,0.0009162972,0.0001527162,-631.78125,-235.51875,-608.92505,watch_2
26364392584739,0.1794617,-0.17168503,9.7609215,0.00076358096,0.0009162972,0.0001527162,-633.15,-238.87502,-606.28125,watch_2
26364390698802,0.18903299,-0.17168503,9.732208,-0.0004581486,-0.0015271619,0.0001527162,-633.15,-238.87502,-606.28125,watch_2
26364402584687,0.18903299,-0.17168503,9.732208,-0.0004581486,-0.0015271619,0.0001527162,-632.98126,-235.51875,-609.5063,watch_2
26364385583698,0.18903299,-0.17168503,9.732208,-0.0004581486,-0.0015271619,0.0001527162,-632.98126,-235.51875,-609.5063,watch_2
26364412584635,0.18903299,-0.17168503,9.732208,-0.0004581486,-0.0015271619,0.0001527162,-633.11255,-238.10626,-608.3813,watch_2
26364410321823,0.19860429,-0.17168503,9.756136,0.00076358096,0.0009162972,0.0001527162,-632.47504,-237.90001,-607.7438,watch_2
26364405206719,0.19860429,-0.17168503,9.756136,0.00076358096,0.0009162972,0.0001527162,-632.47504,-237.90001,-607.7438,watch_2
26364422584583,0.19860429,-0.17168503,9.756136,0.00076358096,0.0009162972,0.0001527162,-632.47504,-237.90001,-607.7438,watch_2
26364432584531,0.19860429,-0.17168503,9.756136,0.00076358096,0.0009162972,0.0001527162,-632.10004,-237.13126,-608.2125,watch_2
26364429974844,0.18424734,-0.17168503,9.746565,-0.0004581486,-0.0003054324,0.0001527162,-632.10004,-237.13126,-608.2125,watch_2
26364424859739,0.18424734,-0.17168503,9.746565,-0.0004581486,-0.0003054324,0.0001527162,-632.10004,-237.13126,-608.2125,watch_2
26364442584479,0.18424734,-0.17168503,9.746565,-0.0004581486,-0.0003054324,0.0001527162,-633.09375,-238.10626,-608.10004,watch_2
26364452584427,0.18424734,-0.17168503,9.746565,-0.0004581486,-0.0003054324,0.0001527162,-632.4938,-238.20001,-607.4438,watch_2
26364449597812,0.19860429,-0.18125631,9.741779,-0.0004581486,-0.0015271619,-0.0010690134,-632.4938,-238.20001,-607.4438,watch_2
26364444482708,0.19860429,-0.18125631,9.741779,-0.0004581486,-0.0015271619,-0.0010690134,-632.4938,-238.20001,-607.4438,watch_2
26364462584375,0.19860429,-0.18125631,9.741779,-0.0004581486,-0.0015271619,-0.0010690134,-632.60626,-237.61876,-608.3813,watch_2
26364472584323,0.19860429,-0.18125631,9.741779,-0.0004581486,-0.0015271619,-0.0010690134,-633.03754,-237.05626,-610.66876,watch_2
26364464135729,0.19860429,-0.18125631,9.736994,-0.0004581486,-0.0003054324,-0.0010690134,-633.03754,-237.05626,-610.66876,watch_2
26364482584271,0.19860429,-0.18125631,9.736994,-0.0004581486,-0.0003054324,-0.0010690134,-632.34375,-236.75626,-607.5563,watch_2
26364469250833,0.19860429,-0.18125631,9.736994,-0.0004581486,-0.0003054324,-0.0010690134,-633.03754,-237.05626,-610.66876,watch_2
26364492584219,0.19860429,-0.18125631,9.736994,-0.0004581486,-0.0003054324,-0.0010690134,-632.625,-238.06876,-607.3125,watch_2
26364488873802,0.19381863,-0.17168503,9.756136,-0.0004581486,-0.0003054324,-0.0010690134,-632.625,-238.06876,-607.3125,watch_2
26364502584166,0.19381863,-0.17168503,9.756136,0.00076358096,-0.0003054324,-0.0010690134,-633.09375,-238.44376,-605.8875,watch_2
26364483758698,0.19381863,-0.17168503,9.756136,0.00076358096,-0.0003054324,-0.0010690134,-633.09375,-238.44376,-605.8875,watch_2
26364512584114,0.19381863,-0.17168503,9.756136,0.00076358096,-0.0003054324,-0.0010690134,-630.60004,-237.24376,-607.0125,watch_2
26364508496823,0.1794617,-0.17647067,9.746565,-0.0004581486,0.0021380268,0.0001527162,-630.60004,-237.24376,-607.0125,watch_2
26364503381719,0.1794617,-0.17647067,9.746565,-0.0004581486,0.0021380268,0.0001527162,-630.60004,-237.24376,-607.0125,watch_2
26364522584062,0.1794617,-0.17647067,9.746565,-0.0004581486,0.0021380268,0.0001527162,-631.3313,-239.41876,-609.35626,watch_2
26364532584010,0.1794617,-0.17647067,9.746565,-0.0004581486,0.0021380268,0.0001527162,-629.4,-236.13751,-605.25,watch_2
26364523034739,0.19381863,-0.16689938,9.75135,0.00076358096,-0.0003054324,0.0001527162,-629.4,-236.13751,-605.25,watch_2
26364528149844,0.19381863,-0.16689938,9.75135,0.00076358096,-0.0003054324,0.0001527162,-629.4,-236.13751,-605.25,watch_2
26364542583958,0.19381863,-0.16689938,9.75135,0.00076358096,-0.0003054324,0.0001527162,-631.875,-239.56876,-605.4938,watch_2
26364552583906,0.19381863,-0.16689938,9.75135,0.00076358096,-0.0003054324,0.0001527162,-630.7125,-238.2375,-607.5188,watch_2
26364542657708,0.20338993,-0.17647067,9.736994,-0.0004581486,-0.0015271619,0.0001527162,-630.7125,-238.2375,-607.5188,watch_2
26364547772812,0.20338993,-0.17647067,9.736994,-0.0004581486,-0.0015271619,0.0001527162,-630.7125,-238.2375,-607.5188,watch_2
