# Session ID: 20250816_124821
# Start Time: 1755341301976
# Device ID: watch_1
# Sample Count: 4724
# Generated by Watch IMU Recorder
timestamp,accel_x,accel_y,accel_z,gyro_x,gyro_y,gyro_z,mag_x,mag_y,mag_z,watch_name
26350043232383,0.4019942,-0.2213361,9.817153,0.0,0.0030543238,-0.0004581486,-87.75,5.53125,48.16875,watch_1
26350062306394,0.41156548,-0.2117648,9.802796,0.0,0.0030543238,-0.0004581486,-87.75,5.53125,48.16875,watch_1
26350081379415,0.4211368,-0.20697916,9.817153,0.0,0.0030543238,-0.0004581486,-87.75,5.53125,48.16875,watch_1
26350100453425,0.41635114,-0.22612174,9.817153,0.0,0.0030543238,-0.0004581486,-87.75,5.53125,48.16875,watch_1
26350125359883,0.41635114,-0.22612174,9.817153,-0.0012217296,0.0006108648,-0.0004581486,-89.981255,13.425,42.6375,watch_1
26350114563633,0.41635114,-0.22612174,9.817153,-0.0012217296,0.0006108648,-0.0004581486,-89.981255,13.425,42.6375,watch_1
26350119526394,0.41635114,-0.19740787,9.783653,-0.0012217296,0.0006108648,-0.0004581486,-89.981255,13.425,42.6375,watch_1
26350135359831,0.41635114,-0.19740787,9.783653,-0.0012217296,0.0006108648,-0.0004581486,-89.9625,13.89375,40.85625,watch_1
26350145359779,0.41635114,-0.19740787,9.783653,-0.0012217296,0.0006108648,-0.0004581486,-89.137505,11.55,42.91875,watch_1
26350138600404,0.41156548,-0.21655045,9.812367,0.0,0.0006108648,-0.0004581486,-89.137505,11.55,42.91875,watch_1
26350133637644,0.41156548,-0.21655045,9.812367,0.0,0.0006108648,-0.0004581486,-89.137505,11.55,42.91875,watch_1
26350155359727,0.41156548,-0.21655045,9.812367,0.0,0.0006108648,-0.0004581486,-90.75,12.243751,40.48125,watch_1
26350157673425,0.40677986,-0.2117648,9.802796,0.0,0.0006108648,-0.0004581486,-89.64375,12.337501,43.21875,watch_1
26350165359675,0.40677986,-0.2117648,9.802796,0.0,0.0006108648,-0.0004581486,-89.64375,12.337501,43.21875,watch_1
26350152710665,0.40677986,-0.2117648,9.802796,-0.0012217296,-0.0006108648,-0.0004581486,-89.64375,12.337501,43.21875,watch_1
26350175359623,0.40677986,-0.2117648,9.802796,-0.0012217296,-0.0006108648,-0.0004581486,-89.83125,12.20625,41.756252,watch_1
26350185359571,0.40677986,-0.2117648,9.802796,-0.0012217296,-0.0006108648,-0.0004581486,-89.287506,11.38125,43.350002,watch_1
26350171753633,0.40677986,-0.20219351,9.807582,0.0,-0.0006108648,-0.0004581486,-89.287506,11.38125,43.350002,watch_1
26350176716394,0.40677986,-0.20219351,9.807582,0.0,-0.0006108648,-0.0004581486,-89.287506,11.38125,43.350002,watch_1
26350195359519,0.40677986,-0.20219351,9.807582,0.0,-0.0006108648,-0.0004581486,-88.70625,9.58125,45.487503,watch_1
26350205359467,0.40677986,-0.20219351,9.807582,0.0,-0.0006108648,-0.0004581486,-89.68125,10.1625,45.318752,watch_1
26350190827644,0.40677986,-0.20219351,9.807582,0.0,-0.0006108648,-0.0004581486,-89.68125,10.1625,45.318752,watch_1
26350195790404,0.41156548,-0.2117648,9.8219385,0.0,-0.0006108648,-0.0004581486,-89.68125,10.1625,45.318752,watch_1
26350215359415,0.41156548,-0.2117648,9.8219385,0.0,-0.0006108648,-0.0004581486,-88.762505,10.743751,43.7625,watch_1
26350209900665,0.40677986,-0.2117648,9.793225,-0.0012217296,0.0006108648,-0.0004581486,-88.762505,10.743751,43.7625,watch_1
26350214863425,0.40677986,-0.2117648,9.793225,-0.0012217296,0.0006108648,-0.0004581486,-88.762505,10.743751,43.7625,watch_1
26350225359363,0.40677986,-0.2117648,9.793225,-0.0012217296,0.0006108648,-0.0004581486,-88.89375,10.856251,44.025,watch_1
26350235359310,0.40677986,-0.2117648,9.793225,-0.0012217296,0.0006108648,-0.0004581486,-89.381256,10.6875,42.675003,watch_1
26350228974623,0.40677986,-0.2117648,9.793225,0.0,0.0006108648,-0.0004581486,-88.89375,10.856251,44.025,watch_1
26350245359258,0.40677986,-0.2117648,9.793225,0.0,0.0006108648,-0.0004581486,-88.89375,10.856251,44.025,watch_1
26350233937383,0.41156548,-0.23090738,9.802796,0.0,0.0006108648,-0.0004581486,-88.89375,10.856251,44.025,watch_1
26350255359206,0.41156548,-0.23090738,9.802796,0.0,0.0006108648,-0.0004581486,-89.3625,13.181251,44.625,watch_1
26350253010404,0.41156548,-0.20697916,9.798011,-0.0012217296,-0.0006108648,-0.0004581486,-89.3625,13.181251,44.625,watch_1
26350248047644,0.41156548,-0.20697916,9.798011,-0.0012217296,-0.0006108648,-0.0004581486,-89.3625,13.181251,44.625,watch_1
26350265359154,0.41156548,-0.20697916,9.798011,-0.0012217296,-0.0006108648,-0.0004581486,-88.14375,10.96875,43.66875,watch_1
26350275359102,0.41156548,-0.20697916,9.798011,-0.0012217296,-0.0006108648,-0.0004581486,-86.925,10.96875,44.4,watch_1
26350272083425,0.40677986,-0.19740787,9.807582,-0.0012217296,-0.0006108648,-0.0004581486,-86.925,10.96875,44.4,watch_1
26350267120665,0.40677986,-0.19740787,9.807582,-0.0012217296,0.0018325944,-0.0004581486,-86.925,10.96875,44.4,watch_1
26350285359050,0.40677986,-0.19740787,9.807582,-0.0012217296,0.0018325944,-0.0004581486,-87.95625,9.993751,43.5,watch_1
26350295358998,0.40677986,-0.19740787,9.807582,-0.0012217296,0.0018325944,-0.0004581486,-89.26875,11.3625,44.662502,watch_1
26350291157383,0.41156548,-0.20697916,9.802796,-0.0012217296,0.0018325944,-0.0004581486,-89.26875,11.3625,44.662502,watch_1
26350286194623,0.41156548,-0.20697916,9.802796,0.0,0.0006108648,-0.0004581486,-89.26875,11.3625,44.662502,watch_1
26350305358946,0.41156548,-0.20697916,9.802796,0.0,0.0006108648,-0.0004581486,-89.756256,12.76875,42.0,watch_1
26350315358894,0.41156548,-0.20697916,9.802796,0.0,0.0006108648,-0.0004581486,-88.0875,12.806251,43.65,watch_1
26350310230404,0.41156548,-0.2213361,9.798011,0.0,0.0006108648,-0.0004581486,-88.0875,12.806251,43.65,watch_1
26350305267644,0.41156548,-0.2213361,9.798011,-0.0012217296,-0.0006108648,-0.0004581486,-88.0875,12.806251,43.65,watch_1
26350325358842,0.41156548,-0.2213361,9.798011,-0.0012217296,-0.0006108648,-0.0004581486,-88.6875,13.368751,40.03125,watch_1
26350335358790,0.41156548,-0.2213361,9.798011,-0.0012217296,-0.0006108648,-0.0004581486,-87.600006,13.481251,41.8875,watch_1
26350329304415,0.41156548,-0.21655045,9.798011,-0.0012217296,-0.0006108648,-0.0004581486,-87.600006,13.481251,41.8875,watch_1
26350324341654,0.41156548,-0.21655045,9.798011,-0.0012217296,-0.0018325944,-0.0004581486,-87.600006,13.481251,41.8875,watch_1
26350345358738,0.41156548,-0.21655045,9.798011,-0.0012217296,-0.0018325944,-0.0004581486,-88.93125,12.168751,42.300003,watch_1
26350355358685,0.41156548,-0.21655045,9.798011,-0.0012217296,-0.0018325944,-0.0004581486,-91.631256,11.94375,42.881252,watch_1
26350348347383,0.40677986,-0.21655045,9.802796,0.0,-0.0006108648,-0.0004581486,-91.631256,11.94375,42.881252,watch_1
26350343384623,0.40677986,-0.21655045,9.802796,0.0,-0.0006108648,-0.0004581486,-91.631256,11.94375,42.881252,watch_1
26350365358633,0.40677986,-0.21655045,9.802796,0.0,-0.0006108648,-0.0004581486,-89.006256,12.8625,41.79375,watch_1
26350375358581,0.40677986,-0.20697916,9.798011,0.0,-0.0006108648,-0.0004581486,-88.40625,12.95625,41.850002,watch_1
26350367420404,0.40677986,-0.20697916,9.798011,0.0,-0.0006108648,-0.0004581486,-88.40625,12.95625,41.850002,watch_1
26350385358529,0.40677986,-0.20697916,9.798011,-0.0012217296,0.0006108648,-0.0004581486,-90.65625,11.3625,42.768753,watch_1
26350362457644,0.40677986,-0.20697916,9.798011,-0.0012217296,0.0006108648,-0.0004581486,-88.40625,12.95625,41.850002,watch_1
26350386494415,0.41156548,-0.19740787,9.807582,-0.0012217296,0.0006108648,-0.0004581486,-89.8125,12.187501,42.768753,watch_1
26350395358477,0.41156548,-0.19740787,9.807582,-0.0012217296,0.0006108648,-0.0004581486,-89.8125,12.187501,42.768753,watch_1
26350381531654,0.41156548,-0.19740787,9.807582,0.0,0.0006108648,-0.0004581486,-89.8125,12.187501,42.768753,watch_1
26350405358425,0.41156548,-0.19740787,9.807582,0.0,0.0006108648,-0.0004581486,-88.33125,10.181251,45.9,watch_1
26350405567383,0.40677986,-0.2117648,9.798011,0.0,0.0006108648,-0.0004581486,-88.33125,10.181251,45.9,watch_1
26350400604623,0.40677986,-0.2117648,9.798011,-0.0012217296,-0.0006108648,-0.0004581486,-89.9625,8.981251,45.84375,watch_1
26350415358373,0.40677986,-0.2117648,9.798011,-0.0012217296,-0.0006108648,-0.0004581486,-89.9625,8.981251,45.84375,watch_1
26350425358321,0.40677986,-0.2117648,9.798011,-0.0012217296,-0.0006108648,-0.0004581486,-89.100006,10.40625,43.7625,watch_1
26350419678633,0.40677986,-0.2117648,9.798011,-0.0012217296,0.0006108648,-0.0004581486,-88.89375,12.450001,42.5625,watch_1
26350435358269,0.40677986,-0.2117648,9.798011,-0.0012217296,0.0006108648,-0.0004581486,-88.89375,12.450001,42.5625,watch_1
26350424641394,0.40677986,-0.20697916,9.812367,-0.0012217296,0.0006108648,-0.0004581486,-88.89375,12.450001,42.5625,watch_1
26350445358217,0.40677986,-0.20697916,9.812367,-0.0012217296,0.0006108648,-0.0004581486,-89.71875,11.606251,43.575,watch_1
26350443714415,0.4211368,-0.23090738,9.793225,0.0,-0.0018325944,-0.0004581486,-89.71875,11.606251,43.575,watch_1
26350438751654,0.4211368,-0.23090738,9.793225,0.0,-0.0018325944,-0.0004581486,-89.71875,11.606251,43.575,watch_1
26350455358165,0.4211368,-0.23090738,9.793225,0.0,-0.0018325944,-0.0004581486,-88.350006,10.5375,42.825,watch_1
26350465358113,0.4211368,-0.23090738,9.793225,0.0,-0.0018325944,-0.0004581486,-89.512505,9.056251,45.300003,watch_1
26350462788425,0.41156548,-0.2117648,9.798011,-0.0012217296,0.0006108648,-0.0004581486,-89.512505,9.056251,45.300003,watch_1
26350457825665,0.41156548,-0.2117648,9.798011,-0.0012217296,0.0006108648,-0.0004581486,-89.512505,9.056251,45.300003,watch_1
26350495972644,0.4019942,-0.2117648,9.807582,0.0,0.0018325944,-0.0004581486,-87.84375,9.262501,45.46875,watch_1
26350500935404,0.4019942,-0.2117648,9.807582,0.0,0.0018325944,-0.0004581486,-87.84375,9.262501,45.46875,watch_1
26350505357904,0.40677986,-0.20697916,9.788439,0.0,0.0006108648,-0.0004581486,-87.84375,9.262501,45.46875,watch_1
26350495357956,0.40677986,-0.20697916,9.788439,0.0,0.0006108648,-0.0004581486,-87.9,11.53125,44.8125,watch_1
26350515357852,0.4019942,-0.2117648,9.807582,0.0,0.0018325944,-0.0004581486,-88.668755,10.33125,43.3875,watch_1
26350481861394,0.40677986,-0.20697916,9.788439,-0.0012217296,0.0006108648,-0.0004581486,-89.83125,10.6125,43.36875,watch_1
26350476898633,0.40677986,-0.20697916,9.788439,0.0,0.0006108648,-0.0004581486,-89.83125,10.6125,43.36875,watch_1
26350475358060,0.41156548,-0.2117648,9.798011,-0.0012217296,0.0006108648,-0.0004581486,-89.71875,11.625,42.99375,watch_1
26350485358008,0.41156548,-0.2117648,9.798011,-0.0012217296,0.0006108648,-0.0004581486,-89.83125,10.6125,43.36875,watch_1
26350525357800,0.4019942,-0.2117648,9.807582,0.0,0.0018325944,-0.0004581486,-89.175,10.8,45.318752,watch_1
26350519978425,0.41156548,-0.2213361,9.783653,-0.0012217296,-0.0006108648,-0.0004581486,-89.175,10.8,45.318752,watch_1
26350515015665,0.41156548,-0.2213361,9.783653,-0.0012217296,-0.0006108648,-0.0004581486,-89.175,10.8,45.318752,watch_1
26350535357748,0.41156548,-0.2213361,9.783653,-0.0012217296,-0.0006108648,-0.0004581486,-88.5,11.606251,44.287502,watch_1
26350545357696,0.41156548,-0.2213361,9.783653,-0.0012217296,-0.0006108648,-0.0004581486,-90.375,10.950001,43.55625,watch_1
26350539051394,0.41635114,-0.2117648,9.812367,0.0,0.0006108648,-0.0004581486,-90.375,10.950001,43.55625,watch_1
26350534088633,0.41635114,-0.2117648,9.812367,0.0,0.0006108648,-0.0004581486,-90.375,10.950001,43.55625,watch_1
26350555357644,0.41635114,-0.2117648,9.812367,0.0,0.0006108648,-0.0004581486,-88.93125,12.168751,42.0,watch_1
26350565357592,0.41635114,-0.2117648,9.812367,0.0,0.0006108648,-0.0004581486,-89.775,11.043751,43.03125,watch_1
26350558125404,0.41635114,-0.19740787,9.793225,-0.0012217296,0.0006108648,-0.0004581486,-89.775,11.043751,43.03125,watch_1
26350553162644,0.41635114,-0.19740787,9.793225,-0.0012217296,0.0006108648,-0.0004581486,-89.775,11.043751,43.03125,watch_1
26350575357540,0.41635114,-0.19740787,9.793225,-0.0012217296,0.0006108648,-0.0004581486,-88.70625,11.175,43.443752,watch_1
26350577198425,0.42592242,-0.2117648,9.798011,0.0,0.0006108648,-0.0004581486,-88.70625,11.175,43.443752,watch_1
26350572235665,0.42592242,-0.2117648,9.798011,0.0,0.0006108648,-0.0004581486,-88.70625,11.175,43.443752,watch_1
26350585357488,0.42592242,-0.2117648,9.798011,0.0,0.0006108648,-0.0004581486,-88.70625,11.175,43.443752,watch_1
26350595357435,0.41156548,-0.2117648,9.798011,0.0,0.0006108648,-0.0004581486,-88.875,10.837501,45.3375,watch_1
26350610382644,0.41156548,-0.21655045,9.788439,-0.0012217296,0.0006108648,-0.0004581486,-89.568756,8.625,45.3375,watch_1
26350605357383,0.41156548,-0.2117648,9.798011,0.0,0.0006108648,-0.0004581486,-88.875,10.837501,45.3375,watch_1
26350596272383,0.41156548,-0.2117648,9.798011,0.0,0.0006108648,-0.0004581486,-88.875,10.837501,45.3375,watch_1
26350634419415,0.4211368,-0.20697916,9.802796,0.0,-0.0006108648,-0.0004581486,-87.450005,8.587501,46.59375,watch_1
26350655357123,0.4211368,-0.20697916,9.802796,0.0,-0.0006108648,-0.0004581486,-89.25,8.64375,45.65625,watch_1
26350625357279,0.4019942,-0.20219351,9.798011,0.0,-0.0006108648,-0.0004581486,-89.25,8.64375,45.65625,watch_1
26350653492383,0.4019942,-0.20219351,9.798011,-0.0012217296,-0.0006108648,-0.0004581486,-89.25,8.64375,45.65625,watch_1
26350629456654,0.4211368,-0.20697916,9.802796,0.0,-0.0006108648,-0.0004581486,-87.450005,8.587501,46.59375,watch_1
26350591309623,0.41156548,-0.2117648,9.798011,0.0,0.0006108648,-0.0004581486,-89.568756,8.625,45.3375,watch_1
26350665357071,0.4019942,-0.20219351,9.798011,-0.0012217296,-0.0006108648,-0.0004581486,-88.21875,9.918751,45.506252,watch_1
26350635357227,0.4019942,-0.20219351,9.798011,-0.0012217296,-0.0006108648,-0.0004581486,-88.21875,9.918751,45.506252,watch_1
26350615357331,0.41156548,-0.2117648,9.798011,0.0,0.0006108648,-0.0004581486,-89.568756,8.625,45.3375,watch_1
26350645357175,0.4211368,-0.20697916,9.802796,0.0,-0.0006108648,-0.0004581486,-87.450005,8.587501,46.59375,watch_1
26350615345404,0.41156548,-0.21655045,9.788439,-0.0012217296,0.0006108648,-0.0004581486,-89.568756,8.625,45.3375,watch_1
26350648529623,0.4019942,-0.20219351,9.798011,-0.0012217296,-0.0006108648,-0.0004581486,-88.21875,9.918751,45.506252,watch_1
26350675357019,0.4019942,-0.20219351,9.798011,-0.0012217296,-0.0006108648,-0.0004581486,-88.200005,9.900001,46.0875,watch_1
26350672566394,0.40677986,-0.2117648,9.798011,-0.0012217296,-0.0006108648,-0.0004581486,-88.200005,9.900001,46.0875,watch_1
26350667603633,0.40677986,-0.2117648,9.798011,-0.0012217296,0.0006108648,-0.0004581486,-88.200005,9.900001,46.0875,watch_1
26350685356967,0.40677986,-0.2117648,9.798011,-0.0012217296,0.0006108648,-0.0004581486,-88.068756,11.3625,45.393753,watch_1
26350695356915,0.40677986,-0.2117648,9.798011,-0.0012217296,0.0006108648,-0.0004581486,-88.200005,8.493751,46.518753,watch_1
26350691609415,0.39720857,-0.20219351,9.802796,0.0,-0.0006108648,-0.0004581486,-88.200005,8.493751,46.518753,watch_1
26350686646654,0.39720857,-0.20219351,9.802796,0.0,-0.0006108648,-0.0004581486,-88.200005,8.493751,46.518753,watch_1
26350705356863,0.39720857,-0.20219351,9.802796,0.0,-0.0006108648,-0.0004581486,-88.05,11.6625,44.625,watch_1
26350715356810,0.39720857,-0.20219351,9.802796,0.0,-0.0006108648,-0.0004581486,-89.9625,10.743751,43.2,watch_1
26350710682383,0.41635114,-0.20219351,9.807582,0.0,0.0006108648,-0.0004581486,-89.9625,10.743751,43.2,watch_1
26350705719623,0.41635114,-0.20219351,9.807582,0.0,0.0006108648,-0.0004581486,-89.9625,10.743751,43.2,watch_1
26350725356758,0.41635114,-0.20219351,9.807582,0.0,0.0006108648,-0.0004581486,-88.6125,10.59375,44.381252,watch_1
26350735356706,0.41635114,-0.20219351,9.807582,0.0,0.0006108648,-0.0004581486,-88.950005,10.275001,44.081253,watch_1
26350729756394,0.4211368,-0.2213361,9.807582,0.0,-0.0006108648,-0.0004581486,-88.950005,10.275001,44.081253,watch_1
26350724793633,0.4211368,-0.2213361,9.807582,0.0,-0.0006108648,-0.0004581486,-88.950005,10.275001,44.081253,watch_1
26350745356654,0.4211368,-0.2213361,9.807582,0.0,-0.0006108648,-0.0004581486,-90.3,12.0,41.86875,watch_1
26350755356602,0.4211368,-0.2213361,9.807582,0.0,-0.0006108648,-0.0004581486,-89.175,11.2875,41.925003,watch_1
26350748829415,0.41156548,-0.2117648,9.793225,0.0,0.0006108648,-0.0004581486,-89.175,11.2875,41.925003,watch_1
26350743866654,0.41156548,-0.2117648,9.793225,0.0,0.0006108648,-0.0004581486,-89.175,11.2875,41.925003,watch_1
26350765356550,0.41156548,-0.2117648,9.793225,0.0,0.0006108648,-0.0004581486,-89.231255,10.856251,41.9625,watch_1
26350775356498,0.41156548,-0.2117648,9.793225,0.0,0.0006108648,-0.0004581486,-89.512505,12.225,42.80625,watch_1
26350767903425,0.40677986,-0.2213361,9.817153,-0.0012217296,-0.0006108648,-0.0004581486,-89.512505,12.225,42.80625,watch_1
26350762940665,0.40677986,-0.2213361,9.817153,-0.0012217296,-0.0006108648,-0.0004581486,-89.512505,12.225,42.80625,watch_1
26350785356446,0.40677986,-0.2213361,9.817153,-0.0012217296,-0.0006108648,-0.0004581486,-90.65625,12.95625,40.706253,watch_1
26350795356394,0.40677986,-0.2213361,9.817153,-0.0012217296,-0.0006108648,-0.0004581486,-89.981255,12.01875,42.1875,watch_1
26350786976394,0.40677986,-0.21655045,9.798011,-0.0012217296,-0.0006108648,-0.0004581486,-89.981255,12.01875,42.1875,watch_1
26350782013633,0.40677986,-0.21655045,9.798011,-0.0012217296,-0.0006108648,-0.0004581486,-87.731255,12.01875,42.600002,watch_1
26350805356342,0.40677986,-0.21655045,9.798011,-0.0012217296,-0.0006108648,-0.0004581486,-87.731255,12.01875,42.600002,watch_1
26350815356290,0.40677986,-0.21655045,9.798011,-0.0012217296,-0.0006108648,-0.0004581486,-90.131256,12.168751,41.71875,watch_1
26350806050404,0.41156548,-0.23090738,9.802796,-0.0012217296,0.0006108648,-0.0004581486,-90.131256,12.168751,41.71875,watch_1
26350801087644,0.41156548,-0.23090738,9.802796,-0.0012217296,0.0006108648,-0.0004581486,-90.131256,12.168751,41.71875,watch_1
26350825356238,0.41156548,-0.23090738,9.802796,-0.0012217296,0.0006108648,-0.0004581486,-88.40625,12.95625,41.850002,watch_1
26350820160665,0.41156548,-0.23090738,9.802796,-0.0012217296,-0.0006108648,-0.0004581486,-88.40625,12.95625,41.850002,watch_1
26350835356185,0.41156548,-0.23090738,9.802796,-0.0012217296,-0.0006108648,-0.0004581486,-89.86875,13.031251,42.393753,watch_1
26350825123425,0.41156548,-0.21655045,9.798011,-0.0012217296,-0.0006108648,-0.0004581486,-89.86875,13.031251,42.393753,watch_1
26350845356133,0.41156548,-0.21655045,9.798011,-0.0012217296,-0.0006108648,-0.0004581486,-89.775,14.043751,41.4375,watch_1
26350844197383,0.40677986,-0.2117648,9.802796,-0.0012217296,0.0006108648,-0.0004581486,-89.775,14.043751,41.4375,watch_1
26350839234623,0.40677986,-0.2117648,9.802796,-0.0012217296,0.0006108648,-0.0004581486,-89.775,14.043751,41.4375,watch_1
26350855356081,0.40677986,-0.2117648,9.802796,-0.0012217296,0.0006108648,-0.0004581486,-89.7375,11.325001,43.3125,watch_1
26350865356029,0.40677986,-0.2117648,9.802796,-0.0012217296,0.0006108648,-0.0004581486,-89.64375,12.656251,41.15625,watch_1
26350863270404,0.41156548,-0.21655045,9.802796,-0.0012217296,0.0006108648,-0.0004581486,-89.64375,12.656251,41.15625,watch_1
26350858307644,0.41156548,-0.21655045,9.802796,-0.0012217296,0.0006108648,-0.0004581486,-89.64375,12.656251,41.15625,watch_1
26350875355977,0.41156548,-0.21655045,9.802796,-0.0012217296,0.0006108648,-0.0004581486,-89.7375,12.750001,43.0125,watch_1
26350885355925,0.41156548,-0.21655045,9.802796,-0.0012217296,0.0006108648,-0.0004581486,-90.58125,13.51875,41.98125,watch_1
26350882313425,0.41635114,-0.20219351,9.798011,0.0,-0.0006108648,-0.0004581486,-90.58125,13.51875,41.98125,watch_1
26350877350665,0.41635114,-0.20219351,9.798011,0.0,-0.0006108648,-0.0004581486,-90.58125,13.51875,41.98125,watch_1
26350895355873,0.41635114,-0.20219351,9.798011,0.0,-0.0006108648,-0.0004581486,-89.7375,11.64375,41.9625,watch_1
26350905355821,0.41635114,-0.20219351,9.798011,0.0,-0.0006108648,-0.0004581486,-89.64375,12.656251,41.15625,watch_1
26350896423633,0.41156548,-0.2213361,9.793225,0.0,-0.0006108648,-0.0004581486,-89.64375,12.656251,41.15625,watch_1
26350901386394,0.41156548,-0.2213361,9.793225,0.0,-0.0006108648,-0.0004581486,-89.64375,12.656251,41.15625,watch_1
26350915355769,0.41156548,-0.2213361,9.793225,0.0,-0.0006108648,-0.0004581486,-88.89375,11.3625,40.5,watch_1
26350925355717,0.41156548,-0.2213361,9.793225,0.0,-0.0006108648,-0.0004581486,-89.006256,11.45625,42.075,watch_1
26350915497644,0.41156548,-0.2213361,9.802796,-0.0012217296,0.0006108648,-0.0004581486,-89.006256,11.45625,42.075,watch_1
26350920460404,0.41156548,-0.2213361,9.802796,-0.0012217296,0.0006108648,-0.0004581486,-89.006256,11.45625,42.075,watch_1
26350935355665,0.41156548,-0.2213361,9.802796,-0.0012217296,0.0006108648,-0.0004581486,-91.2375,11.587501,41.662502,watch_1
26350945355613,0.41156548,-0.2213361,9.802796,-0.0012217296,0.0006108648,-0.0004581486,-89.7375,11.64375,41.9625,watch_1
26350939533425,0.41156548,-0.20697916,9.793225,0.0,0.0006108648,-0.0004581486,-89.7375,11.64375,41.9625,watch_1
26350934570665,0.41156548,-0.20697916,9.793225,0.0,0.0006108648,-0.0004581486,-89.7375,11.64375,41.9625,watch_1
26350955355560,0.41156548,-0.20697916,9.793225,0.0,0.0006108648,-0.0004581486,-89.5875,11.512501,42.43125,watch_1
26350965355508,0.41156548,-0.20697916,9.793225,0.0,0.0006108648,-0.0004581486,-90.76875,10.368751,42.412502,watch_1
26350958607383,0.40677986,-0.2117648,9.807582,-0.0012217296,0.0006108648,-0.0004581486,-90.76875,10.368751,42.412502,watch_1
26350953644623,0.40677986,-0.2117648,9.807582,-0.0012217296,0.0006108648,-0.0004581486,-90.76875,10.368751,42.412502,watch_1
26350975355456,0.40677986,-0.2117648,9.807582,-0.0012217296,0.0006108648,-0.0004581486,-89.981255,12.356251,40.125,watch_1
26350985355404,0.40677986,-0.2117648,9.807582,-0.0012217296,0.0006108648,-0.0004581486,-90.168755,12.975,42.80625,watch_1
26350977680404,0.41156548,-0.20697916,9.812367,-0.0012217296,0.0006108648,-0.0004581486,-90.168755,12.975,42.80625,watch_1
26350995355352,0.41156548,-0.20697916,9.812367,0.0,0.0006108648,-0.0004581486,-89.850006,13.33125,41.79375,watch_1
26350972717644,0.41156548,-0.20697916,9.812367,0.0,0.0006108648,-0.0004581486,-89.850006,13.33125,41.79375,watch_1
26351005355300,0.41156548,-0.20697916,9.812367,0.0,0.0006108648,-0.0004581486,-88.93125,12.168751,42.300003,watch_1
26350991791654,0.39720857,-0.20697916,9.793225,-0.0012217296,0.0006108648,-0.0004581486,-88.93125,12.168751,42.300003,watch_1
26350996754415,0.39720857,-0.20697916,9.793225,-0.0012217296,0.0006108648,-0.0004581486,-88.93125,12.168751,42.300003,watch_1
26351015355248,0.39720857,-0.20697916,9.793225,-0.0012217296,0.0006108648,-0.0004581486,-89.90625,11.475,42.112503,watch_1
26351025355196,0.39720857,-0.20697916,9.793225,-0.0012217296,0.0006108648,-0.0004581486,-90.01875,12.056251,40.875,watch_1
26351015827383,0.41156548,-0.2117648,9.807582,-0.0012217296,-0.0006108648,-0.0004581486,-90.01875,12.056251,40.875,watch_1
26351010864623,0.41156548,-0.2117648,9.807582,-0.0012217296,-0.0006108648,-0.0004581486,-90.01875,12.056251,40.875,watch_1
26351035355144,0.41156548,-0.2117648,9.807582,-0.0012217296,-0.0006108648,-0.0004581486,-89.53125,14.925,41.53125,watch_1
26351034901394,0.41635114,-0.21655045,9.788439,-0.0012217296,-0.0006108648,-0.0004581486,-89.53125,14.925,41.53125,watch_1
26351029938633,0.41635114,-0.21655045,9.788439,0.0,0.0006108648,-0.0004581486,-89.53125,14.925,41.53125,watch_1
26351045355092,0.41635114,-0.21655045,9.788439,0.0,0.0006108648,-0.0004581486,-89.700005,13.200001,42.2625,watch_1
26351055355040,0.41635114,-0.21655045,9.788439,0.0,0.0006108648,-0.0004581486,-89.700005,13.200001,42.2625,watch_1
26351048981654,0.41635114,-0.21655045,9.788439,0.0,0.0006108648,-0.0004581486,-89.700005,13.200001,42.2625,watch_1
26351065354988,0.41635114,-0.21655045,9.788439,0.0,0.0006108648,-0.0004581486,-90.8625,12.356251,41.193752,watch_1
26351053944415,0.4211368,-0.20697916,9.798011,0.0,0.0006108648,-0.0004581486,-90.8625,12.356251,41.193752,watch_1
26351075354935,0.4211368,-0.20697916,9.798011,0.0,0.0006108648,-0.0004581486,-90.3,12.0,41.86875,watch_1
26351068054623,0.40677986,-0.20219351,9.802796,0.0,-0.0006108648,-0.0004581486,-90.9375,12.88125,42.73125,watch_1
26351085354883,0.40677986,-0.20219351,9.802796,0.0,-0.0006108648,-0.0004581486,-90.9375,12.88125,42.73125,watch_1
26351073017383,0.40677986,-0.20219351,9.802796,0.0,-0.0006108648,-0.0004581486,-90.9375,12.88125,42.73125,watch_1
26351095354831,0.40677986,-0.20219351,9.802796,0.0,-0.0006108648,-0.0004581486,-89.287506,11.38125,43.65,watch_1
26351087128633,0.41156548,-0.2117648,9.802796,-0.0012217296,0.0018325944,-0.0004581486,-89.287506,11.38125,43.65,watch_1
26351092091394,0.41156548,-0.2117648,9.802796,-0.0012217296,0.0018325944,-0.0004581486,-89.287506,11.38125,43.65,watch_1
26351105354779,0.41156548,-0.2117648,9.802796,-0.0012217296,0.0018325944,-0.0004581486,-90.01875,13.1625,41.643753,watch_1
26351115354727,0.41156548,-0.2117648,9.802796,-0.0012217296,0.0018325944,-0.0004581486,-89.86875,11.775001,41.79375,watch_1
26351111164415,0.40677986,-0.2213361,9.802796,0.0,0.0006108648,-0.0004581486,-89.86875,11.775001,41.79375,watch_1
26351106201654,0.40677986,-0.2213361,9.802796,0.0,0.0006108648,-0.0004581486,-89.86875,11.775001,41.79375,watch_1
26351125354675,0.40677986,-0.2213361,9.802796,0.0,0.0006108648,-0.0004581486,-90.1875,11.7375,41.756252,watch_1
26351135354623,0.40677986,-0.2213361,9.802796,0.0,0.0006108648,-0.0004581486,-87.9375,11.587501,42.46875,watch_1
26351130238425,0.39720857,-0.20697916,9.807582,0.0,-0.0006108648,-0.0004581486,-87.9375,11.587501,42.46875,watch_1
26351125275665,0.39720857,-0.20697916,9.807582,0.0,-0.0006108648,-0.0004581486,-87.9375,11.587501,42.46875,watch_1
26351145354571,0.39720857,-0.20697916,9.807582,0.0,-0.0006108648,-0.0004581486,-88.78125,12.356251,40.8375,watch_1
26351155354519,0.39720857,-0.20697916,9.807582,0.0,-0.0006108648,-0.0004581486,-90.7125,12.20625,42.375,watch_1
26351149311394,0.4019942,-0.20219351,9.793225,0.0,-0.0006108648,-0.0004581486,-90.7125,12.20625,42.375,watch_1
26351144348633,0.4019942,-0.20219351,9.793225,-0.0012217296,-0.0006108648,-0.0004581486,-90.7125,12.20625,42.375,watch_1
26351165354467,0.4019942,-0.20219351,9.793225,-0.0012217296,-0.0006108648,-0.0004581486,-89.137505,11.56875,42.1875,watch_1
26351175354415,0.4019942,-0.20219351,9.793225,-0.0012217296,-0.0006108648,-0.0004581486,-90.7125,12.525001,40.74375,watch_1
26351163422644,0.4019942,-0.20219351,9.793225,0.0,-0.0006108648,-0.0004581486,-90.7125,12.525001,40.74375,watch_1
26351168385404,0.41635114,-0.2117648,9.817153,0.0,-0.0006108648,-0.0004581486,-90.75,13.368751,41.100002,watch_1
26351185354363,0.41635114,-0.2117648,9.817153,0.0,-0.0006108648,-0.0004581486,-90.75,13.368751,41.100002,watch_1
26351195354310,0.41635114,-0.2117648,9.817153,0.0,-0.0006108648,-0.0004581486,-90.65625,11.3625,42.768753,watch_1
26351187458425,0.41156548,-0.20697916,9.807582,0.0,-0.0006108648,-0.0004581486,-90.65625,11.3625,42.768753,watch_1
26351182495665,0.41156548,-0.20697916,9.807582,0.0,0.0006108648,-0.0004581486,-90.65625,11.3625,42.768753,watch_1
26351205354258,0.41156548,-0.20697916,9.807582,0.0,0.0006108648,-0.0004581486,-90.0,12.0375,41.60625,watch_1
26351215354206,0.41156548,-0.20697916,9.807582,0.0,0.0006108648,-0.0004581486,-90.4875,13.125001,40.575,watch_1
26351201569623,0.4019942,-0.2117648,9.802796,-0.0012217296,0.0018325944,-0.0004581486,-90.4875,13.125001,40.575,watch_1
26351206532383,0.4019942,-0.2117648,9.802796,-0.0012217296,0.0018325944,-0.0004581486,-90.4875,13.125001,40.575,watch_1
26351225354154,0.4019942,-0.2117648,9.802796,-0.0012217296,0.0018325944,-0.0004581486,-89.193756,12.731251,40.612503,watch_1
26351220612644,0.4019942,-0.2117648,9.802796,0.0,-0.0006108648,-0.0004581486,-89.193756,12.731251,40.612503,watch_1
26351235354102,0.4019942,-0.2117648,9.802796,0.0,-0.0006108648,-0.0004581486,-89.925,12.6,41.850002,watch_1
26351225575404,0.39720857,-0.2213361,9.793225,0.0,-0.0006108648,-0.0004581486,-89.925,12.6,41.850002,watch_1
26351245354050,0.39720857,-0.2213361,9.793225,0.0,-0.0006108648,-0.0004581486,-89.0625,12.281251,42.131252,watch_1
26351244648425,0.4211368,-0.2117648,9.783653,0.0,-0.0006108648,-0.0004581486,-89.0625,12.281251,42.131252,watch_1
26351239685665,0.4211368,-0.2117648,9.783653,0.0,-0.0006108648,-0.0004581486,-90.76875,11.475,43.4625,watch_1
26351255353998,0.4211368,-0.2117648,9.783653,0.0,-0.0006108648,-0.0004581486,-90.76875,11.475,43.4625,watch_1
26351265353946,0.4211368,-0.2117648,9.783653,0.0,-0.0006108648,-0.0004581486,-89.9625,12.0,43.21875,watch_1
26351263722383,0.4019942,-0.19740787,9.788439,0.0,0.0006108648,-0.0004581486,-89.9625,12.0,43.21875,watch_1
26351258759623,0.4019942,-0.19740787,9.788439,0.0,0.0006108648,-0.0004581486,-89.4,10.387501,43.143753,watch_1
26351275353894,0.4019942,-0.19740787,9.788439,0.0,0.0006108648,-0.0004581486,-89.4,10.387501,43.143753,watch_1
26351285353842,0.4019942,-0.19740787,9.788439,0.0,0.0006108648,-0.0004581486,-90.39375,10.96875,42.54375,watch_1
26351282795404,0.41156548,-0.2213361,9.802796,0.0,0.0006108648,-0.0004581486,-90.39375,10.96875,42.54375,watch_1
26351277832644,0.41156548,-0.2213361,9.802796,0.0,0.0006108648,-0.0004581486,-90.39375,10.96875,42.54375,watch_1
26351295353790,0.41156548,-0.2213361,9.802796,0.0,0.0006108648,-0.0004581486,-88.14375,12.543751,42.35625,watch_1
26351305353738,0.41156548,-0.2213361,9.802796,0.0,0.0006108648,-0.0004581486,-89.006256,11.45625,42.075,watch_1
26351301869415,0.41156548,-0.20697916,9.802796,0.0,0.0006108648,-0.0004581486,-89.006256,11.45625,42.075,watch_1
26351296906654,0.41156548,-0.20697916,9.802796,0.0,0.0006108648,-0.0004581486,-89.006256,11.45625,42.075,watch_1
26351315353685,0.41156548,-0.20697916,9.802796,0.0,0.0006108648,-0.0004581486,-89.4375,12.7875,43.050003,watch_1
26351325353633,0.41156548,-0.20697916,9.802796,0.0,0.0006108648,-0.0004581486,-89.34375,11.118751,42.35625,watch_1
26351320942383,0.40677986,-0.2213361,9.793225,0.0,0.0006108648,-0.0004581486,-89.34375,11.118751,42.35625,watch_1
26351315979623,0.40677986,-0.2213361,9.793225,0.0,-0.0006108648,-0.0004581486,-89.34375,11.118751,42.35625,watch_1
26351335353581,0.40677986,-0.2213361,9.793225,0.0,-0.0006108648,-0.0004581486,-91.012505,12.168751,42.35625,watch_1
26351345353529,0.40677986,-0.2213361,9.793225,0.0,-0.0006108648,-0.0004581486,-90.58125,12.4125,40.631252,watch_1
26351340016394,0.40677986,-0.2117648,9.802796,-0.0012217296,0.0006108648,-0.0004581486,-90.58125,12.4125,40.631252,watch_1
26351335053633,0.40677986,-0.2117648,9.802796,-0.0012217296,0.0006108648,-0.0004581486,-90.58125,12.4125,40.631252,watch_1
26351355353477,0.40677986,-0.2117648,9.802796,-0.0012217296,0.0006108648,-0.0004581486,-89.043755,14.175,40.5,watch_1
26351365353425,0.40677986,-0.2117648,9.802796,-0.0012217296,0.0006108648,-0.0004581486,-88.818756,11.587501,42.956253,watch_1
26351359089415,0.41156548,-0.22612174,9.807582,-0.0012217296,-0.0006108648,-0.0016798781,-88.818756,11.587501,42.956253,watch_1
26351354126654,0.41156548,-0.22612174,9.807582,-0.0012217296,-0.0006108648,-0.0016798781,-88.818756,11.587501,42.956253,watch_1
26351375353373,0.41156548,-0.22612174,9.807582,-0.0012217296,-0.0006108648,-0.0016798781,-88.18125,12.281251,41.79375,watch_1
26351385353321,0.41156548,-0.22612174,9.807582,-0.0012217296,-0.0006108648,-0.0016798781,-89.100006,13.425,41.568752,watch_1
26351378163425,0.42592242,-0.2117648,9.798011,-0.0012217296,-0.0006108648,-0.0004581486,-89.100006,13.425,41.568752,watch_1
26351373200665,0.42592242,-0.2117648,9.798011,-0.0012217296,-0.0006108648,-0.0004581486,-89.100006,13.425,41.568752,watch_1
26351395353269,0.42592242,-0.2117648,9.798011,-0.0012217296,-0.0006108648,-0.0004581486,-90.881256,12.39375,39.881252,watch_1
26351405353217,0.42592242,-0.2117648,9.798011,-0.0012217296,-0.0006108648,-0.0004581486,-87.731255,13.6125,41.71875,watch_1
26351397206394,0.42592242,-0.20697916,9.798011,-0.0012217296,-0.0006108648,-0.0004581486,-87.731255,13.6125,41.71875,watch_1
26351392243633,0.42592242,-0.20697916,9.798011,0.0,0.0006108648,-0.0004581486,-87.731255,13.6125,41.71875,watch_1
26351415353165,0.42592242,-0.20697916,9.798011,0.0,0.0006108648,-0.0004581486,-89.943756,10.725,43.93125,watch_1
26351425353113,0.42592242,-0.20697916,9.798011,0.0,0.0006108648,-0.0004581486,-89.30625,9.4875,46.0125,watch_1
26351416279415,0.4019942,-0.19740787,9.798011,0.0,0.0018325944,-0.0004581486,-89.30625,9.4875,46.0125,watch_1
26351411316654,0.4019942,-0.19740787,9.798011,0.0,0.0018325944,-0.0004581486,-89.30625,9.4875,46.0125,watch_1
26351435353060,0.4019942,-0.19740787,9.798011,0.0,0.0018325944,-0.0004581486,-89.775,9.76875,43.0125,watch_1
26351435353425,0.4019942,-0.19740787,9.807582,0.0,0.0006108648,-0.0004581486,-89.775,9.76875,43.0125,watch_1
26351430390665,0.4019942,-0.19740787,9.807582,0.0,0.0006108648,-0.0004581486,-89.231255,10.5375,44.025,watch_1
26351445353008,0.4019942,-0.19740787,9.807582,0.0,0.0006108648,-0.0004581486,-89.231255,10.5375,44.025,watch_1
26351455352956,0.4019942,-0.19740787,9.807582,0.0,0.0006108648,-0.0004581486,-89.25,10.556251,42.5625,watch_1
26351454426394,0.4019942,-0.20219351,9.788439,-0.0012217296,-0.0006108648,-0.0004581486,-89.25,10.556251,42.5625,watch_1
26351449463633,0.4019942,-0.20219351,9.788439,-0.0012217296,-0.0006108648,-0.0004581486,-88.0875,10.293751,42.0,watch_1
26351465352904,0.4019942,-0.20219351,9.788439,-0.0012217296,-0.0006108648,-0.0004581486,-88.0875,10.293751,42.0,watch_1
26351475352852,0.4019942,-0.20219351,9.788439,-0.0012217296,-0.0006108648,-0.0004581486,-89.15625,10.1625,42.1875,watch_1
26351485352800,0.4019942,-0.20219351,9.788439,-0.0012217296,-0.0006108648,-0.0004581486,-89.26875,10.25625,43.03125,watch_1
26351468536654,0.4019942,-0.20219351,9.788439,-0.0012217296,-0.0006108648,-0.0004581486,-89.26875,10.25625,43.03125,watch_1
26351473499415,0.40677986,-0.21655045,9.802796,-0.0012217296,-0.0006108648,-0.0004581486,-89.26875,10.25625,43.03125,watch_1
26351495352748,0.40677986,-0.21655045,9.802796,-0.0012217296,-0.0006108648,-0.0004581486,-89.925,11.175,43.162502,watch_1
26351492573425,0.40677986,-0.20697916,9.788439,-0.0012217296,-0.0018325944,-0.0004581486,-89.925,11.175,43.162502,watch_1
26351487610665,0.40677986,-0.20697916,9.788439,-0.0012217296,-0.0018325944,-0.0004581486,-89.925,11.175,43.162502,watch_1
26351505352696,0.40677986,-0.20697916,9.788439,-0.0012217296,-0.0018325944,-0.0004581486,-88.70625,11.493751,42.09375,watch_1
26351515352644,0.40677986,-0.20697916,9.788439,-0.0012217296,-0.0018325944,-0.0004581486,-89.53125,12.243751,41.34375,watch_1
26351511646394,0.41156548,-0.20697916,9.812367,-0.0012217296,-0.0018325944,-0.0004581486,-89.53125,12.243751,41.34375,watch_1
26351506683633,0.41156548,-0.20697916,9.812367,-0.0012217296,0.0006108648,-0.0004581486,-89.53125,12.243751,41.34375,watch_1
26351525352592,0.41156548,-0.20697916,9.812367,-0.0012217296,0.0006108648,-0.0004581486,-89.193756,10.81875,44.006252,watch_1
26351535352540,0.41156548,-0.20697916,9.812367,-0.0012217296,0.0006108648,-0.0004581486,-89.700005,10.181251,44.5875,watch_1
26351530720404,0.40677986,-0.20697916,9.798011,-0.0012217296,0.0006108648,-0.0004581486,-89.700005,10.181251,44.5875,watch_1
26351525757644,0.40677986,-0.20697916,9.798011,0.0,0.0018325944,-0.0004581486,-89.700005,10.181251,44.5875,watch_1
26351545352488,0.40677986,-0.20697916,9.798011,0.0,0.0018325944,-0.0004581486,-90.881256,12.0375,42.675003,watch_1
26351555352435,0.40677986,-0.20697916,9.798011,0.0,0.0018325944,-0.0004581486,-89.287506,11.38125,43.350002,watch_1
26351549793425,0.4019942,-0.20219351,9.802796,0.0,0.0018325944,-0.0004581486,-89.287506,11.38125,43.350002,watch_1
26351544830665,0.4019942,-0.20219351,9.802796,0.0,0.0006108648,-0.0004581486,-89.287506,11.38125,43.350002,watch_1
26351565352383,0.4019942,-0.20219351,9.802796,0.0,0.0006108648,-0.0004581486,-90.1125,11.6625,45.412502,watch_1
26351575352331,0.4019942,-0.20219351,9.802796,0.0,0.0006108648,-0.0004581486,-89.8125,9.168751,44.9625,watch_1
26351568836394,0.40677986,-0.20697916,9.802796,0.0,0.0006108648,-0.0004581486,-89.8125,9.168751,44.9625,watch_1
26351563873633,0.40677986,-0.20697916,9.802796,0.0,0.0006108648,-0.0004581486,-89.8125,9.168751,44.9625,watch_1
26351585352279,0.40677986,-0.20697916,9.802796,0.0,0.0006108648,-0.0004581486,-89.193756,12.39375,42.975002,watch_1
26351595352227,0.40677986,-0.20697916,9.802796,0.0,0.0006108648,-0.0004581486,-90.1125,11.043751,41.25,watch_1
26351587910404,0.41156548,-0.21655045,9.802796,0.0,0.0006108648,-0.0004581486,-90.1125,11.043751,41.25,watch_1
26351582947644,0.41156548,-0.21655045,9.802796,-0.0012217296,-0.0006108648,-0.0004581486,-90.4875,13.125001,41.15625,watch_1
26351605352175,0.41156548,-0.21655045,9.802796,-0.0012217296,-0.0006108648,-0.0004581486,-90.4875,13.125001,41.15625,watch_1
26351615352123,0.41156548,-0.21655045,9.802796,-0.0012217296,-0.0006108648,-0.0004581486,-89.006256,11.4375,42.65625,watch_1
26351606983425,0.4211368,-0.2117648,9.798011,-0.0012217296,-0.0006108648,-0.0004581486,-89.006256,11.4375,42.65625,watch_1
26351602020665,0.4211368,-0.2117648,9.798011,0.0,-0.0006108648,-0.0004581486,-89.006256,11.4375,42.65625,watch_1
26351625352071,0.4211368,-0.2117648,9.798011,0.0,-0.0006108648,-0.0004581486,-90.318756,10.44375,41.4375,watch_1
26351635352019,0.4211368,-0.2117648,9.798011,0.0,-0.0006108648,-0.0004581486,-89.11875,11.85,42.16875,watch_1
26351626057383,0.4019942,-0.20219351,9.793225,0.0,-0.0006108648,-0.0004581486,-89.11875,11.85,42.16875,watch_1
26351621094623,0.4019942,-0.20219351,9.793225,0.0,0.0006108648,-0.0004581486,-89.11875,11.85,42.16875,watch_1
26351645351967,0.4019942,-0.20219351,9.793225,0.0,0.0006108648,-0.0004581486,-90.84375,12.656251,40.875,watch_1
26351645130404,0.40677986,-0.20697916,9.812367,0.0,0.0018325944,-0.0004581486,-90.84375,12.656251,40.875,watch_1
26351640167644,0.40677986,-0.20697916,9.812367,0.0,0.0018325944,-0.0004581486,-90.84375,12.656251,40.875,watch_1
26351655351915,0.40677986,-0.20697916,9.812367,0.0,0.0018325944,-0.0004581486,-89.5875,13.06875,41.850002,watch_1
26351665351863,0.40677986,-0.20697916,9.812367,0.0,0.0018325944,-0.0004581486,-90.65625,12.95625,41.4375,watch_1
26351664204415,0.41635114,-0.2117648,9.778868,0.0,0.0018325944,-0.0004581486,-90.65625,12.95625,41.4375,watch_1
26351659241654,0.41635114,-0.2117648,9.778868,-0.0012217296,0.0006108648,-0.0004581486,-90.65625,12.95625,41.4375,watch_1
26351675351810,0.41635114,-0.2117648,9.778868,-0.0012217296,0.0006108648,-0.0004581486,-90.693756,12.50625,41.775,watch_1
26351685351758,0.41635114,-0.2117648,9.778868,-0.0012217296,0.0006108648,-0.0004581486,-90.1125,12.13125,42.75,watch_1
26351683277383,0.40677986,-0.21655045,9.798011,-0.0012217296,0.0006108648,-0.0004581486,-90.1125,12.13125,42.75,watch_1
26351678314623,0.40677986,-0.21655045,9.798011,-0.0012217296,-0.0006108648,-0.0004581486,-91.59375,9.0375,46.36875,watch_1
26351695351706,0.40677986,-0.21655045,9.798011,-0.0012217296,-0.0006108648,-0.0004581486,-91.59375,9.0375,46.36875,watch_1
26351705351654,0.40677986,-0.21655045,9.798011,-0.0012217296,-0.0006108648,-0.0004581486,-87.5625,10.44375,45.09375,watch_1
26351702351394,0.41156548,-0.2213361,9.788439,-0.0012217296,-0.0006108648,-0.0004581486,-87.5625,10.44375,45.09375,watch_1
26351697388633,0.41156548,-0.2213361,9.788439,0.0,-0.0018325944,-0.0004581486,-87.5625,10.44375,45.09375,watch_1
26351715351602,0.41156548,-0.2213361,9.788439,0.0,-0.0018325944,-0.0004581486,-87.450005,12.843751,45.45,watch_1
26351725351550,0.41156548,-0.2213361,9.788439,0.0,-0.0018325944,-0.0004581486,-88.8375,11.2875,43.987503,watch_1
26351721424415,0.41156548,-0.22612174,9.798011,0.0,0.0006108648,-0.0004581486,-88.8375,11.2875,43.987503,watch_1
26351716461654,0.41156548,-0.22612174,9.798011,0.0,0.0006108648,-0.0004581486,-88.8375,11.2875,43.987503,watch_1
26351735351498,0.41156548,-0.22612174,9.798011,0.0,0.0006108648,-0.0004581486,-88.5,11.925,42.525,watch_1
26351745351446,0.41156548,-0.22612174,9.798011,0.0,0.0006108648,-0.0004581486,-88.51875,11.64375,42.975002,watch_1
26351740498425,0.41635114,-0.20697916,9.798011,0.0,0.0006108648,-0.0004581486,-88.51875,11.64375,42.975002,watch_1
26351735535665,0.41635114,-0.20697916,9.798011,0.0,0.0006108648,-0.0004581486,-88.51875,11.64375,42.975002,watch_1
26351755351394,0.41635114,-0.20697916,9.798011,0.0,0.0006108648,-0.0004581486,-89.15625,11.25,43.518753,watch_1
26351765351342,0.41635114,-0.20697916,9.798011,0.0,0.0006108648,-0.0004581486,-89.475006,9.637501,44.23125,watch_1
26351754578633,0.41156548,-0.2117648,9.788439,-0.0012217296,0.0018325944,-0.0004581486,-89.475006,9.637501,44.23125,watch_1
26351759541394,0.41156548,-0.2117648,9.788439,-0.0012217296,0.0018325944,-0.0004581486,-89.475006,9.637501,44.23125,watch_1
26351775351290,0.41156548,-0.2117648,9.788439,-0.0012217296,0.0018325944,-0.0004581486,-86.662506,11.83125,45.05625,watch_1
26351785351238,0.41156548,-0.2117648,9.788439,-0.0012217296,0.0018325944,-0.0004581486,-88.631256,10.950001,41.5875,watch_1
26351778614415,0.40677986,-0.21655045,9.802796,-0.0012217296,0.0018325944,-0.0004581486,-88.631256,10.950001,41.5875,watch_1
26351773651654,0.40677986,-0.21655045,9.802796,-0.0012217296,-0.0006108648,-0.0004581486,-88.631256,10.950001,41.5875,watch_1
26351795351185,0.40677986,-0.21655045,9.802796,-0.0012217296,-0.0006108648,-0.0004581486,-89.006256,11.137501,43.706253,watch_1
26351805351133,0.40677986,-0.21655045,9.802796,-0.0012217296,-0.0006108648,-0.0004581486,-89.006256,12.543751,43.85625,watch_1
26351797688425,0.41156548,-0.21655045,9.802796,-0.0012217296,-0.0006108648,-0.0004581486,-89.006256,12.543751,43.85625,watch_1
26351792725665,0.41156548,-0.21655045,9.802796,-0.0012217296,-0.0006108648,-0.0004581486,-89.006256,12.543751,43.85625,watch_1
26351815351081,0.41156548,-0.21655045,9.802796,-0.0012217296,-0.0006108648,-0.0004581486,-90.318756,11.53125,43.518753,watch_1
26351825351029,0.4019942,-0.2213361,9.798011,0.0,0.0006108648,-0.0004581486,-90.375,11.26875,42.506252,watch_1
26351816761394,0.4019942,-0.2213361,9.798011,0.0,0.0006108648,-0.0004581486,-90.375,11.26875,42.506252,watch_1
26351811798633,0.4019942,-0.2213361,9.798011,0.0,0.0006108648,-0.0004581486,-90.375,11.26875,42.506252,watch_1
26351835350977,0.4019942,-0.2213361,9.798011,0.0,0.0006108648,-0.0004581486,-89.08125,10.725,42.43125,watch_1
26351845350925,0.40677986,-0.2117648,9.798011,0.0,-0.0006108648,-0.0004581486,-90.4875,8.3625,45.393753,watch_1
26351830872644,0.40677986,-0.2117648,9.798011,0.0,-0.0006108648,-0.0004581486,-90.4875,8.3625,45.393753,watch_1
26351835835404,0.40677986,-0.2117648,9.798011,0.0,-0.0006108648,-0.0004581486,-90.4875,8.3625,45.393753,watch_1
26351855350873,0.40677986,-0.2117648,9.798011,0.0,-0.0006108648,-0.0004581486,-87.01875,11.512501,44.175003,watch_1
26351849945665,0.40677986,-0.20219351,9.793225,-0.0012217296,0.0006108648,-0.0004581486,-88.818756,11.587501,43.237503,watch_1
26351865350821,0.40677986,-0.20219351,9.793225,-0.0012217296,0.0006108648,-0.0004581486,-88.818756,11.587501,43.237503,watch_1
26351854908425,0.40677986,-0.20219351,9.793225,-0.0012217296,0.0006108648,-0.0004581486,-88.818756,11.587501,43.237503,watch_1
26351875350769,0.40677986,-0.20219351,9.793225,-0.0012217296,0.0006108648,-0.0004581486,-88.8,10.462501,43.2,watch_1
26351873982383,0.40677986,-0.19740787,9.807582,-0.0012217296,0.0006108648,-0.0004581486,-88.8,10.462501,43.2,watch_1
26351869019623,0.40677986,-0.19740787,9.807582,0.0,0.0018325944,-0.0004581486,-88.8,10.462501,43.2,watch_1
26351885350717,0.40677986,-0.19740787,9.807582,0.0,0.0018325944,-0.0004581486,-89.08125,10.087501,45.825,watch_1
26351895350665,0.40677986,-0.19740787,9.807582,0.0,0.0018325944,-0.0004581486,-89.7375,11.325001,43.3125,watch_1
26351893055404,0.40677986,-0.2213361,9.802796,0.0,0.0018325944,-0.0004581486,-89.7375,11.325001,43.3125,watch_1
26351888092644,0.40677986,-0.2213361,9.802796,-0.0012217296,0.0006108648,-0.0004581486,-88.8375,8.26875,46.612503,watch_1
26351905350613,0.40677986,-0.2213361,9.802796,-0.0012217296,0.0006108648,-0.0004581486,-88.8375,8.26875,46.612503,watch_1
26351915350560,0.40677986,-0.2213361,9.802796,-0.0012217296,0.0006108648,-0.0004581486,-88.537506,8.793751,43.40625,watch_1
26351912129415,0.40677986,-0.2117648,9.802796,-0.0012217296,-0.0006108648,-0.0004581486,-88.537506,8.793751,43.40625,watch_1
26351907166654,0.40677986,-0.2117648,9.802796,-0.0012217296,-0.0006108648,-0.0004581486,-88.537506,8.793751,43.40625,watch_1
26351925350508,0.40677986,-0.2117648,9.802796,-0.0012217296,-0.0006108648,-0.0004581486,-89.025,9.5625,44.1375,watch_1
26351935350456,0.40677986,-0.2117648,9.802796,-0.0012217296,-0.0006108648,-0.0004581486,-88.575005,11.3625,42.28125,watch_1
26351931172383,0.4211368,-0.20219351,9.793225,0.0,-0.0006108648,-0.0004581486,-88.575005,11.3625,42.28125,watch_1
26351926209623,0.4211368,-0.20219351,9.793225,0.0,-0.0006108648,-0.0004581486,-88.575005,11.3625,42.28125,watch_1
26351945350404,0.4211368,-0.20219351,9.793225,0.0,-0.0006108648,-0.0004581486,-89.100006,11.85,42.9,watch_1
26351955350352,0.4211368,-0.20219351,9.793225,0.0,-0.0006108648,-0.0004581486,-89.83125,10.6125,43.36875,watch_1
26351950245404,0.41635114,-0.21655045,9.798011,0.0,-0.0006108648,-0.0004581486,-89.83125,10.6125,43.36875,watch_1
26351945282644,0.41635114,-0.21655045,9.798011,0.0,0.0006108648,0.00076358096,-89.83125,10.6125,43.36875,watch_1
26351965350300,0.41635114,-0.21655045,9.798011,0.0,0.0006108648,0.00076358096,-89.943756,10.70625,44.2125,watch_1
26351975350248,0.41635114,-0.21655045,9.798011,0.0,0.0006108648,0.00076358096,-87.131256,11.925,44.268753,watch_1
26351964356654,0.41635114,-0.21655045,9.798011,0.0,0.0018325944,-0.0004581486,-87.131256,11.925,44.268753,watch_1
26351969319415,0.4019942,-0.21655045,9.793225,0.0,0.0018325944,-0.0004581486,-89.043755,12.262501,43.143753,watch_1
26351985350196,0.4019942,-0.21655045,9.793225,0.0,0.0018325944,-0.0004581486,-89.043755,12.262501,43.143753,watch_1
26351995350144,0.4019942,-0.21655045,9.793225,0.0,0.0018325944,-0.0004581486,-87.318756,10.368751,43.3875,watch_1
26351988392383,0.40677986,-0.20219351,9.793225,0.0,-0.0006108648,-0.0004581486,-87.318756,10.368751,43.3875,watch_1
26351983429623,0.40677986,-0.20219351,9.793225,0.0,-0.0006108648,-0.0004581486,-87.318756,10.368751,43.3875,watch_1
26352005350092,0.40677986,-0.20219351,9.793225,0.0,-0.0006108648,-0.0004581486,-88.78125,10.78125,41.86875,watch_1
26352015350040,0.40677986,-0.20219351,9.793225,0.0,-0.0006108648,-0.0004581486,-89.0625,12.281251,42.412502,watch_1
26352007466394,0.41635114,-0.21655045,9.798011,-0.0012217296,0.0006108648,-0.0004581486,-89.0625,12.281251,42.412502,watch_1
26352002503633,0.41635114,-0.21655045,9.798011,-0.0012217296,0.0006108648,-0.0004581486,-89.0625,12.281251,42.412502,watch_1
26352025349988,0.41635114,-0.21655045,9.798011,-0.0012217296,0.0006108648,-0.0004581486,-87.7125,10.575001,44.925003,watch_1
26352035349935,0.41635114,-0.21655045,9.798011,-0.0012217296,0.0006108648,-0.0004581486,-89.71875,10.200001,43.55625,watch_1
26352026539415,0.41635114,-0.2213361,9.812367,0.0,-0.0006108648,-0.0004581486,-89.71875,10.200001,43.55625,watch_1
26352021576654,0.41635114,-0.2213361,9.812367,0.0,-0.0006108648,-0.0004581486,-89.71875,10.200001,43.55625,watch_1
26352045349883,0.41635114,-0.2213361,9.812367,0.0,-0.0006108648,-0.0004581486,-88.93125,10.575001,43.331253,watch_1
26352040650665,0.41635114,-0.2213361,9.812367,-0.0012217296,-0.0006108648,-0.0004581486,-88.93125,10.575001,43.331253,watch_1
26352055349831,0.41156548,-0.2117648,9.788439,-0.0012217296,-0.0006108648,-0.0004581486,-89.568756,11.493751,43.4625,watch_1
26352045613425,0.41156548,-0.2117648,9.788439,-0.0012217296,-0.0006108648,-0.0004581486,-89.568756,11.493751,43.4625,watch_1
26352065349779,0.41156548,-0.2117648,9.788439,-0.0012217296,-0.0006108648,-0.0004581486,-90.3375,9.637501,45.581253,watch_1
26352064686394,0.41156548,-0.21655045,9.793225,-0.0012217296,-0.0006108648,-0.0004581486,-90.3375,9.637501,45.581253,watch_1
26352075349727,0.41156548,-0.21655045,9.793225,-0.0012217296,0.0018325944,-0.0004581486,-87.28125,8.7375,47.04375,watch_1
26352059723633,0.41156548,-0.21655045,9.793225,-0.0012217296,0.0018325944,-0.0004581486,-87.28125,8.7375,47.04375,watch_1
26352085349675,0.41156548,-0.21655045,9.793225,-0.0012217296,0.0018325944,-0.0004581486,-89.2125,10.837501,42.975002,watch_1
26352078796654,0.40677986,-0.21655045,9.798011,-0.0012217296,0.0006108648,-0.0004581486,-89.2125,10.837501,42.975002,watch_1
26352083759415,0.40677986,-0.21655045,9.798011,-0.0012217296,0.0006108648,-0.0004581486,-89.2125,10.837501,42.975002,watch_1
26352095349623,0.40677986,-0.21655045,9.798011,-0.0012217296,0.0006108648,-0.0004581486,-89.34375,11.118751,42.6375,watch_1
26352105349571,0.40677986,-0.21655045,9.798011,-0.0012217296,0.0006108648,-0.0004581486,-87.918755,11.55,43.78125,watch_1
26352097839623,0.4019942,-0.21655045,9.807582,-0.0012217296,0.0006108648,-0.0004581486,-87.918755,11.55,43.78125,watch_1
26352115349519,0.4019942,-0.21655045,9.807582,-0.0012217296,0.0006108648,-0.0004581486,-88.912506,13.556251,43.03125,watch_1
26352102802383,0.4019942,-0.21655045,9.807582,-0.0012217296,0.0006108648,-0.0004581486,-88.912506,13.556251,43.03125,watch_1
26352125349467,0.4019942,-0.21655045,9.807582,-0.0012217296,0.0006108648,-0.0004581486,-88.275,11.25,42.75,watch_1
26352121876394,0.4211368,-0.2117648,9.793225,-0.0012217296,-0.0006108648,-0.0004581486,-88.275,11.25,42.75,watch_1
26352116913633,0.4211368,-0.2117648,9.793225,-0.0012217296,-0.0006108648,-0.0004581486,-88.275,11.25,42.75,watch_1
26352135349415,0.4211368,-0.2117648,9.793225,-0.0012217296,-0.0006108648,-0.0004581486,-88.575005,11.38125,41.550003,watch_1
26352145349363,0.4211368,-0.2117648,9.793225,-0.0012217296,-0.0006108648,-0.0004581486,-88.575005,11.38125,41.550003,watch_1
26352140949415,0.41635114,-0.21655045,9.802796,0.0,0.0006108648,-0.0004581486,-88.14375,9.543751,43.95,watch_1
26352135986654,0.41635114,-0.21655045,9.802796,0.0,0.0006108648,-0.0004581486,-88.14375,9.543751,43.95,watch_1
26352155349310,0.41635114,-0.21655045,9.802796,0.0,0.0006108648,-0.0004581486,-88.14375,9.543751,43.95,watch_1
26352165349258,0.41635114,-0.21655045,9.802796,0.0,0.0006108648,-0.0004581486,-88.5,11.606251,44.5875,watch_1
26352160023425,0.40677986,-0.21655045,9.802796,0.0,0.0006108648,-0.0004581486,-88.5,11.606251,44.5875,watch_1
26352155060665,0.40677986,-0.21655045,9.802796,-0.0012217296,-0.0006108648,-0.0004581486,-88.05,10.575001,42.84375,watch_1
26352175349206,0.40677986,-0.21655045,9.802796,-0.0012217296,-0.0006108648,-0.0004581486,-88.05,10.575001,42.84375,watch_1
26352185349154,0.40677986,-0.21655045,9.802796,-0.0012217296,-0.0006108648,-0.0004581486,-89.850006,11.7375,43.10625,watch_1
26352179096394,0.42592242,-0.2117648,9.798011,-0.0012217296,-0.0006108648,-0.0004581486,-89.850006,11.7375,43.10625,watch_1
26352174133633,0.42592242,-0.2117648,9.798011,0.0,0.0006108648,-0.0004581486,-89.850006,11.7375,43.10625,watch_1
26352195349102,0.42592242,-0.2117648,9.798011,0.0,0.0006108648,-0.0004581486,-88.51875,11.625,43.275,watch_1
26352205349050,0.42592242,-0.2117648,9.798011,0.0,0.0006108648,-0.0004581486,-88.6125,10.931251,42.018753,watch_1
26352198170404,0.40677986,-0.20697916,9.802796,0.0,0.0006108648,-0.0004581486,-88.6125,10.931251,42.018753,watch_1
26352193207644,0.40677986,-0.20697916,9.802796,0.0,0.0006108648,-0.0004581486,-88.6125,10.931251,42.018753,watch_1
26352215348998,0.40677986,-0.20697916,9.802796,0.0,0.0006108648,-0.0004581486,-88.350006,13.368751,42.393753,watch_1
26352225348946,0.40677986,-0.20697916,9.802796,0.0,0.0006108648,-0.0004581486,-88.575005,12.468751,43.03125,watch_1
26352212280665,0.41156548,-0.2117648,9.798011,0.0,-0.0006108648,-0.0004581486,-88.575005,12.468751,43.03125,watch_1
26352217243425,0.41156548,-0.2117648,9.798011,0.0,-0.0006108648,-0.0004581486,-88.575005,12.468751,43.03125,watch_1
26352235348894,0.41156548,-0.2117648,9.798011,0.0,-0.0006108648,-0.0004581486,-89.25,10.556251,42.5625,watch_1
26352245348842,0.41156548,-0.2117648,9.798011,0.0,-0.0006108648,-0.0004581486,-88.012505,11.94375,44.60625,watch_1
26352236317383,0.40677986,-0.21655045,9.802796,0.0,-0.0006108648,-0.0004581486,-88.012505,11.94375,44.60625,watch_1
26352231354623,0.40677986,-0.21655045,9.802796,-0.0012217296,-0.0006108648,-0.0004581486,-88.012505,11.94375,44.60625,watch_1
26352255348790,0.40677986,-0.21655045,9.802796,-0.0012217296,-0.0006108648,-0.0004581486,-89.9625,10.725,43.48125,watch_1
26352265348738,0.41156548,-0.21655045,9.802796,-0.0012217296,0.0006108648,-0.0004581486,-89.137505,11.25,43.96875,watch_1
26352255390404,0.41156548,-0.21655045,9.802796,-0.0012217296,0.0006108648,-0.0004581486,-89.137505,11.25,43.96875,watch_1
26352250427644,0.41156548,-0.21655045,9.802796,-0.0012217296,0.0006108648,-0.0004581486,-89.137505,11.25,43.96875,watch_1
26352275348685,0.41156548,-0.21655045,9.802796,-0.0012217296,0.0006108648,-0.0004581486,-90.75,11.925,42.412502,watch_1
26352274433425,0.4019942,-0.20697916,9.802796,-0.0012217296,0.0006108648,-0.0004581486,-90.75,11.925,42.412502,watch_1
26352269470665,0.4019942,-0.20697916,9.802796,-0.0012217296,0.0006108648,-0.0004581486,-90.75,11.925,42.412502,watch_1
26352285348633,0.4019942,-0.20697916,9.802796,-0.0012217296,0.0006108648,-0.0004581486,-88.725006,12.618751,42.43125,watch_1
26352295348581,0.4019942,-0.20697916,9.802796,-0.0012217296,0.0006108648,-0.0004581486,-88.875,12.431251,43.0125,watch_1
26352293507383,0.4019942,-0.2117648,9.798011,-0.0012217296,0.0006108648,-0.0004581486,-88.875,12.431251,43.0125,watch_1
26352288544623,0.4019942,-0.2117648,9.798011,-0.0012217296,0.0006108648,-0.0004581486,-88.875,12.431251,43.0125,watch_1
26352305348529,0.4019942,-0.2117648,9.798011,-0.0012217296,0.0006108648,-0.0004581486,-88.93125,10.59375,43.03125,watch_1
26352315348477,0.4019942,-0.2117648,9.798011,-0.0012217296,0.0006108648,-0.0004581486,-89.981255,12.01875,42.487503,watch_1
26352312580404,0.4019942,-0.21655045,9.802796,0.0,0.0006108648,-0.0004581486,-89.981255,12.01875,42.487503,watch_1
26352307617644,0.4019942,-0.21655045,9.802796,0.0,0.0006108648,-0.0004581486,-89.981255,12.01875,42.487503,watch_1
26352325348425,0.4019942,-0.21655045,9.802796,0.0,0.0006108648,-0.0004581486,-89.4,10.6875,42.09375,watch_1
26352335348373,0.4019942,-0.21655045,9.802796,0.0,0.0006108648,-0.0004581486,-89.8125,12.168751,43.068752,watch_1
26352326691654,0.40677986,-0.21655045,9.793225,-0.0012217296,0.0006108648,-0.0004581486,-89.8125,12.168751,43.068752,watch_1
26352331654415,0.40677986,-0.21655045,9.793225,-0.0012217296,0.0006108648,-0.0004581486,-89.8125,12.168751,43.068752,watch_1
26352345348321,0.40677986,-0.21655045,9.793225,-0.0012217296,0.0006108648,-0.0004581486,-88.36875,13.406251,40.78125,watch_1
26352355348269,0.40677986,-0.21655045,9.793225,-0.0012217296,0.0006108648,-0.0004581486,-88.93125,13.6125,40.987503,watch_1
26352350727383,0.40677986,-0.20697916,9.807582,0.0,-0.0006108648,-0.0004581486,-88.93125,13.6125,40.987503,watch_1
26352345764623,0.40677986,-0.20697916,9.807582,0.0,-0.0006108648,-0.0004581486,-88.93125,13.6125,40.987503,watch_1
26352365348217,0.40677986,-0.20697916,9.807582,0.0,-0.0006108648,-0.0004581486,-89.137505,13.1625,40.575,watch_1
26352375348165,0.40677986,-0.20697916,9.807582,0.0,-0.0006108648,-0.0004581486,-89.53125,12.243751,41.34375,watch_1
26352364838633,0.40677986,-0.2117648,9.802796,0.0,0.0006108648,-0.0004581486,-90.450005,13.387501,41.86875,watch_1
26352385348113,0.40677986,-0.2117648,9.802796,0.0,0.0006108648,-0.0004581486,-90.450005,13.387501,41.86875,watch_1
26352369801394,0.40677986,-0.2117648,9.802796,0.0,0.0006108648,-0.0004581486,-90.450005,13.387501,41.86875,watch_1
26352395348060,0.40677986,-0.2117648,9.802796,0.0,0.0006108648,-0.0004581486,-87.600006,13.481251,41.8875,watch_1
26352383911654,0.41156548,-0.21655045,9.793225,-0.0012217296,0.0018325944,-0.0004581486,-87.600006,13.481251,41.8875,watch_1
26352388874415,0.41156548,-0.21655045,9.793225,-0.0012217296,0.0018325944,-0.0004581486,-87.600006,13.481251,41.8875,watch_1
26352405348008,0.41156548,-0.21655045,9.793225,-0.0012217296,0.0018325944,-0.0004581486,-88.6125,13.63125,42.037502,watch_1
26352415347956,0.41156548,-0.20697916,9.802796,-0.0012217296,0.0018325944,-0.0004581486,-90.09375,12.450001,41.7,watch_1
26352407948425,0.41156548,-0.20697916,9.802796,-0.0012217296,0.0018325944,-0.0004581486,-90.09375,12.450001,41.7,watch_1
26352402985665,0.41156548,-0.20697916,9.802796,0.0,-0.0018325944,-0.0004581486,-90.09375,12.450001,41.7,watch_1
26352425347904,0.41156548,-0.20697916,9.802796,0.0,-0.0018325944,-0.0004581486,-89.287506,11.38125,43.65,watch_1
26352435347852,0.41156548,-0.20697916,9.802796,0.0,-0.0018325944,-0.0004581486,-89.925,12.6,42.15,watch_1
26352422058633,0.41156548,-0.20697916,9.802796,-0.0012217296,-0.0006108648,-0.0004581486,-89.925,12.6,42.15,watch_1
26352427021394,0.4211368,-0.20697916,9.778868,-0.0012217296,-0.0006108648,-0.0004581486,-89.9625,12.31875,42.16875,watch_1
26352445347800,0.4211368,-0.20697916,9.778868,-0.0012217296,-0.0006108648,-0.0004581486,-89.9625,12.31875,42.16875,watch_1
26352455347748,0.41635114,-0.21655045,9.802796,-0.0012217296,-0.0006108648,-0.0004581486,-87.787506,11.75625,42.037502,watch_1
26352446064415,0.41635114,-0.21655045,9.802796,-0.0012217296,-0.0006108648,-0.0004581486,-87.787506,11.75625,42.037502,watch_1
26352441101654,0.41635114,-0.21655045,9.802796,0.0,0.0018325944,-0.0004581486,-87.787506,11.75625,42.037502,watch_1
26352465347696,0.41635114,-0.21655045,9.802796,0.0,0.0018325944,-0.0004581486,-89.49375,12.525001,42.05625,watch_1
26352465138425,0.41156548,-0.21655045,9.788439,0.0,0.0018325944,-0.0004581486,-89.49375,12.525001,42.05625,watch_1
26352460175665,0.41156548,-0.21655045,9.788439,0.0,-0.0006108648,-0.0004581486,-89.49375,12.525001,42.05625,watch_1
26352475347644,0.41156548,-0.21655045,9.788439,0.0,-0.0006108648,-0.0004581486,-90.01875,12.075001,40.143753,watch_1
26352485347592,0.41156548,-0.21655045,9.788439,0.0,-0.0006108648,-0.0004581486,-92.11875,12.8625,43.03125,watch_1
26352495347540,0.40677986,-0.2117648,9.802796,0.0,0.0006108648,-0.0004581486,-88.856255,12.731251,42.54375,watch_1
26352484211394,0.40677986,-0.2117648,9.802796,0.0,0.0006108648,-0.0004581486,-88.856255,12.731251,42.54375,watch_1
26352479248633,0.40677986,-0.2117648,9.802796,0.0,0.0006108648,-0.0004581486,-88.856255,12.731251,42.54375,watch_1
26352505347488,0.40677986,-0.2117648,9.802796,0.0,0.0006108648,-0.0004581486,-88.856255,12.731251,42.54375,watch_1
26352503285404,0.40677986,-0.21655045,9.788439,0.0,0.0006108648,0.00076358096,-88.856255,12.731251,42.54375,watch_1
26352498322644,0.40677986,-0.21655045,9.788439,0.0,0.0006108648,0.00076358096,-88.856255,12.731251,42.54375,watch_1
26352515347435,0.40677986,-0.21655045,9.788439,0.0,0.0006108648,0.00076358096,-88.93125,12.168751,42.0,watch_1
26352525347383,0.40677986,-0.21655045,9.788439,0.0,0.0006108648,0.00076358096,-87.356255,12.76875,42.99375,watch_1
26352522358425,0.41156548,-0.21655045,9.802796,0.0,0.0006108648,0.00076358096,-87.356255,12.76875,42.99375,watch_1
26352517395665,0.41156548,-0.21655045,9.802796,-0.0012217296,-0.0006108648,-0.0004581486,-87.356255,12.76875,42.99375,watch_1
26352535347331,0.41156548,-0.21655045,9.802796,-0.0012217296,-0.0006108648,-0.0004581486,-89.83125,11.71875,44.11875,watch_1
26352545347279,0.41156548,-0.21655045,9.802796,-0.0012217296,-0.0006108648,-0.0004581486,-89.756256,12.76875,41.7,watch_1
26352536469623,0.41635114,-0.2117648,9.783653,-0.0012217296,-0.0006108648,-0.0004581486,-89.756256,12.76875,41.7,watch_1
26352541432383,0.41635114,-0.2117648,9.783653,-0.0012217296,-0.0006108648,-0.0004581486,-89.756256,12.76875,41.7,watch_1
26352555347227,0.41635114,-0.2117648,9.783653,-0.0012217296,-0.0006108648,-0.0004581486,-89.100006,13.425,41.568752,watch_1
26352565347175,0.41635114,-0.2117648,9.783653,-0.0012217296,-0.0006108648,-0.0004581486,-90.05625,12.731251,41.9625,watch_1
26352555542644,0.4211368,-0.2117648,9.817153,0.0,0.0006108648,-0.0004581486,-90.05625,12.731251,41.9625,watch_1
26352560505404,0.4211368,-0.2117648,9.817153,0.0,0.0006108648,-0.0004581486,-90.05625,12.731251,41.9625,watch_1
26352575347123,0.4211368,-0.2117648,9.817153,0.0,0.0006108648,-0.0004581486,-88.350006,10.5375,42.525,watch_1
26352585347071,0.41635114,-0.20697916,9.793225,-0.0012217296,0.0006108648,-0.0004581486,-90.637505,13.25625,39.956253,watch_1
26352595347019,0.41635114,-0.20697916,9.793225,-0.0012217296,0.0006108648,-0.0004581486,-90.637505,13.25625,39.956253,watch_1
26352579579415,0.41635114,-0.20697916,9.793225,-0.0012217296,0.0006108648,-0.0004581486,-90.637505,13.25625,39.956253,watch_1
26352574616654,0.41635114,-0.20697916,9.793225,-0.0012217296,0.0006108648,-0.0004581486,-90.637505,13.25625,39.956253,watch_1
26352605346967,0.41635114,-0.20697916,9.793225,-0.0012217296,0.0006108648,-0.0004581486,-86.568756,13.181251,42.037502,watch_1
26352598652383,0.42592242,-0.20697916,9.802796,-0.0012217296,0.0006108648,-0.0004581486,-86.568756,13.181251,42.037502,watch_1
26352615346915,0.42592242,-0.20697916,9.802796,-0.0012217296,0.0006108648,-0.0004581486,-89.71875,13.200001,41.9625,watch_1
26352593689623,0.42592242,-0.20697916,9.802796,-0.0012217296,0.0006108648,-0.0004581486,-89.71875,13.200001,41.9625,watch_1
26352625346863,0.42592242,-0.20697916,9.802796,-0.0012217296,0.0006108648,-0.0004581486,-89.625,11.212501,42.9,watch_1
26352617726394,0.4211368,-0.19740787,9.793225,0.0,-0.0018325944,-0.0004581486,-89.625,11.212501,42.9,watch_1
26352612763633,0.4211368,-0.19740787,9.793225,0.0,-0.0018325944,-0.0004581486,-89.625,11.212501,42.9,watch_1
26352635346810,0.4211368,-0.19740787,9.793225,0.0,-0.0018325944,-0.0004581486,-90.318756,8.512501,45.54375,watch_1
26352636769415,0.40677986,-0.2213361,9.783653,-0.0012217296,0.0006108648,-0.0004581486,-90.318756,8.512501,45.54375,watch_1
26352655346706,0.40677986,-0.2213361,9.783653,-0.0012217296,0.0006108648,-0.0004581486,-88.162506,7.33125,48.093754,watch_1
26352645346758,0.40677986,-0.2213361,9.783653,-0.0012217296,0.0006108648,-0.0004581486,-90.318756,8.512501,45.54375,watch_1
26352631806654,0.40677986,-0.2213361,9.783653,-0.0012217296,0.0006108648,-0.0004581486,-88.162506,7.33125,48.093754,watch_1
26352665346654,0.40677986,-0.2213361,9.783653,-0.0012217296,0.0006108648,-0.0004581486,-87.99375,9.4125,44.268753,watch_1
26352655842383,0.40677986,-0.2117648,9.817153,-0.0012217296,0.0006108648,-0.0004581486,-87.99375,9.4125,44.268753,watch_1
26352650879623,0.40677986,-0.2117648,9.817153,0.0,-0.0006108648,-0.0004581486,-87.99375,9.4125,44.268753,watch_1
26352675346602,0.40677986,-0.2117648,9.817153,0.0,-0.0006108648,-0.0004581486,-89.175,10.8,44.5875,watch_1
26352674916394,0.41635114,-0.20697916,9.793225,-0.0012217296,-0.0006108648,-0.0004581486,-89.175,10.8,44.5875,watch_1
26352669953633,0.41635114,-0.20697916,9.793225,-0.0012217296,-0.0006108648,-0.0004581486,-89.175,10.8,44.5875,watch_1
26352685346550,0.41635114,-0.20697916,9.793225,-0.0012217296,-0.0006108648,-0.0004581486,-87.95625,9.356251,46.893753,watch_1
26352695346498,0.41635114,-0.20697916,9.793225,-0.0012217296,-0.0006108648,-0.0004581486,-87.450005,11.75625,43.3875,watch_1
26352689026654,0.41156548,-0.20219351,9.793225,0.0,0.0018325944,-0.0004581486,-87.15,10.05,45.61875,watch_1
26352693989415,0.41156548,-0.20219351,9.793225,0.0,0.0018325944,-0.0004581486,-87.450005,11.75625,43.3875,watch_1
26352705346446,0.41156548,-0.20219351,9.793225,0.0,0.0018325944,-0.0004581486,-87.15,10.05,45.61875,watch_1
26352715346394,0.41156548,-0.20219351,9.793225,0.0,0.0018325944,-0.0004581486,-87.075005,10.762501,45.84375,watch_1
26352708099623,0.41156548,-0.20219351,9.793225,0.0,-0.0006108648,-0.0004581486,-88.162506,10.35,45.768753,watch_1
26352713062383,0.40677986,-0.20219351,9.793225,0.0,-0.0006108648,-0.0004581486,-88.162506,10.35,45.768753,watch_1
26352725346342,0.40677986,-0.20219351,9.793225,0.0,-0.0006108648,-0.0004581486,-88.162506,10.35,45.768753,watch_1
26352735346290,0.40677986,-0.20219351,9.793225,0.0,-0.0006108648,-0.0004581486,-87.95625,11.587501,41.8875,watch_1
26352732136394,0.4019942,-0.20697916,9.793225,-0.0012217296,0.0006108648,-0.0004581486,-89.193756,12.4125,41.943752,watch_1
26352745346238,0.4019942,-0.20697916,9.793225,-0.0012217296,0.0006108648,-0.0004581486,-89.193756,12.4125,41.943752,watch_1
26352727173633,0.4019942,-0.20697916,9.793225,-0.0012217296,0.0006108648,-0.0004581486,-89.193756,12.4125,41.943752,watch_1
26352755346185,0.4019942,-0.20697916,9.793225,-0.0012217296,0.0006108648,-0.0004581486,-88.89375,11.3625,40.5,watch_1
26352751209415,0.41156548,-0.21655045,9.802796,-0.0012217296,0.0006108648,-0.0004581486,-88.89375,11.3625,40.5,watch_1
26352746246654,0.41156548,-0.21655045,9.802796,0.0,-0.0006108648,-0.0004581486,-88.78125,10.762501,42.45,watch_1
26352765346133,0.41156548,-0.21655045,9.802796,0.0,-0.0006108648,-0.0004581486,-88.78125,10.762501,42.45,watch_1
26352775346081,0.41156548,-0.21655045,9.802796,0.0,-0.0006108648,-0.0004581486,-90.1875,11.7375,41.025,watch_1
26352765320665,0.41156548,-0.20219351,9.783653,-0.0012217296,0.0006108648,-0.0004581486,-90.1875,11.7375,41.025,watch_1
26352770283425,0.41156548,-0.20219351,9.783653,-0.0012217296,0.0006108648,-0.0004581486,-90.1875,11.7375,41.025,watch_1
26352785346029,0.41156548,-0.20219351,9.783653,-0.0012217296,0.0006108648,-0.0004581486,-90.9,12.075001,40.912502,watch_1
26352795345977,0.41156548,-0.20219351,9.783653,-0.0012217296,0.0006108648,-0.0004581486,-88.5,11.925,42.525,watch_1
26352784393633,0.41156548,-0.20219351,9.807582,0.0,0.0006108648,-0.0004581486,-88.5,11.925,42.525,watch_1
26352789356394,0.41156548,-0.20219351,9.807582,0.0,0.0006108648,-0.0004581486,-88.5,11.925,42.525,watch_1
26352805345925,0.41156548,-0.20219351,9.807582,0.0,0.0006108648,-0.0004581486,-90.600006,12.1125,40.95,watch_1
26352815345873,0.41156548,-0.20219351,9.807582,0.0,0.0006108648,-0.0004581486,-88.96875,10.63125,40.987503,watch_1
26352808399415,0.4019942,-0.20697916,9.802796,0.0,0.0006108648,-0.0004581486,-88.96875,10.63125,40.987503,watch_1
26352803436654,0.4019942,-0.20697916,9.802796,0.0,-0.0006108648,-0.0004581486,-88.96875,10.63125,40.987503,watch_1
26352825345821,0.4019942,-0.20697916,9.802796,0.0,-0.0006108648,-0.0004581486,-88.9875,11.75625,41.30625,watch_1
26352835345769,0.4019942,-0.20697916,9.802796,0.0,-0.0006108648,-0.0004581486,-89.11875,13.125001,42.1875,watch_1
26352822510665,0.4019942,-0.20219351,9.802796,-0.0012217296,0.0006108648,-0.0004581486,-89.11875,13.125001,42.1875,watch_1
26352827473425,0.4019942,-0.20219351,9.802796,-0.0012217296,0.0006108648,-0.0004581486,-89.11875,13.125001,42.1875,watch_1
26352845345717,0.4019942,-0.20219351,9.802796,-0.0012217296,0.0006108648,-0.0004581486,-88.70625,11.493751,41.8125,watch_1
26352855345665,0.41156548,-0.2117648,9.807582,-0.0012217296,0.0006108648,-0.0004581486,-89.08125,12.31875,41.100002,watch_1
26352846546394,0.41156548,-0.2117648,9.807582,-0.0012217296,0.0006108648,-0.0004581486,-89.08125,12.31875,41.100002,watch_1
26352841583633,0.41156548,-0.2117648,9.807582,0.0,-0.0006108648,-0.0004581486,-89.08125,12.31875,41.100002,watch_1
26352865345613,0.41156548,-0.2117648,9.807582,0.0,-0.0006108648,-0.0004581486,-89.5875,13.087501,41.550003,watch_1
26352860657644,0.41156548,-0.2117648,9.807582,0.0,-0.0006108648,-0.0004581486,-90.5625,12.075001,42.693752,watch_1
26352875345560,0.41156548,-0.2117648,9.807582,0.0,-0.0006108648,-0.0004581486,-90.5625,12.075001,42.693752,watch_1
26352865620404,0.41635114,-0.2213361,9.793225,0.0,-0.0006108648,-0.0004581486,-90.5625,12.075001,42.693752,watch_1
26352885345508,0.41635114,-0.2213361,9.793225,0.0,-0.0006108648,-0.0004581486,-90.075005,12.750001,40.95,watch_1
26352879730665,0.41635114,-0.2213361,9.793225,0.0,0.0006108648,-0.0004581486,-90.075005,12.750001,40.95,watch_1
26352895345456,0.41635114,-0.2213361,9.793225,0.0,0.0006108648,-0.0004581486,-90.46875,13.425,39.825,watch_1
26352884693425,0.40677986,-0.2117648,9.793225,0.0,0.0006108648,-0.0004581486,-90.46875,13.425,39.825,watch_1
26352905345404,0.40677986,-0.2117648,9.793225,0.0,0.0006108648,-0.0004581486,-88.55625,12.76875,42.28125,watch_1
26352898804623,0.41156548,-0.21655045,9.807582,0.0,-0.0006108648,-0.0004581486,-88.55625,12.76875,42.28125,watch_1
26352915345352,0.41156548,-0.21655045,9.807582,0.0,-0.0006108648,-0.0004581486,-88.8375,11.606251,42.225002,watch_1
26352903767383,0.41156548,-0.21655045,9.807582,0.0,-0.0006108648,-0.0004581486,-88.8375,11.606251,42.225002,watch_1
26352925345300,0.41156548,-0.21655045,9.807582,0.0,-0.0006108648,-0.0004581486,-90.20625,13.031251,40.4625,watch_1
26352922840404,0.39720857,-0.20697916,9.802796,0.0,0.0018325944,-0.0004581486,-89.475006,12.825001,41.30625,watch_1
26352935345248,0.39720857,-0.20697916,9.802796,0.0,0.0018325944,-0.0004581486,-89.475006,12.825001,41.30625,watch_1
26352917877644,0.39720857,-0.20697916,9.802796,0.0,0.0018325944,-0.0004581486,-89.475006,12.825001,41.30625,watch_1
26352945345196,0.39720857,-0.20697916,9.802796,0.0,0.0018325944,-0.0004581486,-88.762505,12.31875,42.45,watch_1
26352936951654,0.40677986,-0.2117648,9.807582,0.0,-0.0006108648,0.00076358096,-88.762505,12.31875,42.45,watch_1
26352941914415,0.40677986,-0.2117648,9.807582,0.0,0.0018325944,-0.0004581486,-88.762505,12.31875,42.45,watch_1
26352955345144,0.40677986,-0.2117648,9.807582,0.0,-0.0006108648,0.00076358096,-89.662506,12.356251,41.60625,watch_1
26352965345092,0.40677986,-0.2117648,9.807582,0.0,-0.0006108648,0.00076358096,-88.537506,13.2375,41.23125,watch_1
26352956024623,0.40677986,-0.2117648,9.807582,0.0,-0.0006108648,-0.0004581486,-88.537506,13.2375,41.23125,watch_1
26352960987383,0.40677986,-0.2117648,9.793225,0.0,-0.0006108648,-0.0004581486,-88.537506,13.2375,41.23125,watch_1
26352975345040,0.40677986,-0.2117648,9.793225,0.0,-0.0006108648,-0.0004581486,-88.8375,11.94375,40.143753,watch_1
26352985344988,0.4019942,-0.20219351,9.812367,0.0,-0.0006108648,-0.0004581486,-90.075005,11.325001,41.662502,watch_1
26352980030404,0.4019942,-0.20219351,9.812367,0.0,-0.0006108648,-0.0004581486,-90.075005,11.325001,41.662502,watch_1
26352975067644,0.4019942,-0.20219351,9.812367,-0.0012217296,0.0006108648,-0.0004581486,-90.075005,11.325001,41.662502,watch_1
26353005344883,0.4019942,-0.20219351,9.812367,-0.0012217296,0.0006108648,-0.0004581486,-88.65,12.243751,40.29375,watch_1
26352995344935,0.4019942,-0.20219351,9.812367,-0.0012217296,0.0006108648,-0.0004581486,-88.65,12.243751,40.29375,watch_1
26352999104415,0.41156548,-0.20697916,9.807582,0.0,-0.0006108648,-0.0004581486,-88.65,12.243751,40.29375,watch_1
26352994141654,0.41156548,-0.20697916,9.807582,0.0,-0.0006108648,-0.0004581486,-88.65,12.243751,40.29375,watch_1
26353015344831,0.41156548,-0.20697916,9.807582,0.0,-0.0006108648,-0.0004581486,-89.4375,13.275001,40.237503,watch_1
26353025344779,0.41156548,-0.20697916,9.807582,0.0,-0.0006108648,-0.0004581486,-88.106255,12.843751,41.737503,watch_1
26353018177383,0.40677986,-0.20219351,9.793225,0.0,-0.0006108648,-0.0004581486,-88.106255,12.843751,41.737503,watch_1
26353035344727,0.40677986,-0.20219351,9.793225,-0.0012217296,0.0006108648,-0.0004581486,-86.90625,11.418751,42.9,watch_1
26353013214623,0.40677986,-0.20219351,9.793225,-0.0012217296,0.0006108648,-0.0004581486,-86.90625,11.418751,42.9,watch_1
26353045344675,0.40677986,-0.20219351,9.793225,-0.0012217296,0.0006108648,-0.0004581486,-88.55625,12.76875,42.28125,watch_1
26353037251394,0.4019942,-0.2117648,9.807582,-0.0012217296,0.0006108648,-0.0004581486,-88.55625,12.76875,42.28125,watch_1
26353032288633,0.4019942,-0.2117648,9.807582,0.0,-0.0006108648,-0.0004581486,-89.887505,13.031251,41.8125,watch_1
26353055344623,0.4019942,-0.2117648,9.807582,0.0,-0.0006108648,-0.0004581486,-89.887505,13.031251,41.8125,watch_1
26353065344571,0.4019942,-0.2117648,9.807582,0.0,-0.0006108648,-0.0004581486,-88.912506,12.150001,42.600002,watch_1
26353056324415,0.41635114,-0.21655045,9.783653,0.0,-0.0006108648,-0.0004581486,-88.912506,12.150001,42.600002,watch_1
26353051361654,0.41635114,-0.21655045,9.783653,0.0,0.0006108648,-0.0004581486,-88.912506,12.150001,42.600002,watch_1
26353075344519,0.41635114,-0.21655045,9.783653,0.0,0.0006108648,-0.0004581486,-89.137505,13.1625,40.875,watch_1
26353070435665,0.40677986,-0.19740787,9.807582,0.0,0.0006108648,-0.0004581486,-89.137505,13.1625,40.875,watch_1
26353075398425,0.40677986,-0.19740787,9.807582,0.0,0.0006108648,-0.0004581486,-89.137505,13.1625,40.875,watch_1
26353085344467,0.40677986,-0.19740787,9.807582,0.0,0.0006108648,-0.0004581486,-90.168755,10.293751,42.3375,watch_1
26353095344415,0.40677986,-0.19740787,9.807582,0.0,0.0006108648,-0.0004581486,-88.6125,12.187501,43.068752,watch_1
26353089508633,0.41156548,-0.20697916,9.802796,0.0,-0.0018325944,-0.0004581486,-88.6125,12.187501,43.068752,watch_1
26353094471394,0.41156548,-0.20697916,9.802796,0.0,-0.0018325944,-0.0004581486,-88.6125,12.187501,43.068752,watch_1
26353105344363,0.41156548,-0.20697916,9.802796,0.0,-0.0018325944,-0.0004581486,-88.78125,12.356251,40.40625,watch_1
26353115344310,0.41156548,-0.20697916,9.802796,0.0,-0.0018325944,-0.0004581486,-90.637505,11.681251,40.987503,watch_1
26353108582644,0.41156548,-0.21655045,9.807582,0.0,0.0006108648,-0.0004581486,-90.637505,11.681251,40.987503,watch_1
26353113545404,0.41156548,-0.21655045,9.807582,0.0,0.0006108648,-0.0004581486,-90.637505,11.681251,40.987503,watch_1
26353125344258,0.41156548,-0.21655045,9.807582,0.0,0.0006108648,-0.0004581486,-90.131256,12.168751,41.71875,watch_1
26353135344206,0.41156548,-0.21655045,9.807582,0.0,0.0006108648,-0.0004581486,-89.08125,13.425,42.15,watch_1
26353127655665,0.4211368,-0.2117648,9.802796,-0.0012217296,-0.0006108648,-0.0004581486,-89.08125,13.425,42.15,watch_1
26353132618425,0.4211368,-0.2117648,9.802796,-0.0012217296,-0.0006108648,-0.0004581486,-89.08125,13.425,42.15,watch_1
26353145344154,0.4211368,-0.2117648,9.802796,-0.0012217296,-0.0006108648,-0.0004581486,-89.34375,11.118751,42.05625,watch_1
26353155344102,0.4211368,-0.2117648,9.802796,-0.0012217296,-0.0006108648,-0.0004581486,-90.58125,12.093751,42.2625,watch_1
26353151661394,0.41156548,-0.21655045,9.788439,-0.0012217296,0.0006108648,-0.0004581486,-90.58125,12.093751,42.2625,watch_1
26353146698633,0.41156548,-0.21655045,9.788439,-0.0012217296,0.0006108648,-0.0004581486,-90.58125,12.093751,42.2625,watch_1
26353165344050,0.41156548,-0.21655045,9.788439,-0.0012217296,0.0006108648,-0.0004581486,-90.4875,13.125001,41.15625,watch_1
26353175343998,0.41156548,-0.21655045,9.788439,-0.0012217296,0.0006108648,-0.0004581486,-90.0,13.481251,40.59375,watch_1
26353165772644,0.41635114,-0.2117648,9.802796,0.0,0.0006108648,-0.0004581486,-90.0,13.481251,40.59375,watch_1
26353170735404,0.41635114,-0.2117648,9.802796,0.0,0.0006108648,-0.0004581486,-90.0,13.481251,40.59375,watch_1
26353185343946,0.41635114,-0.2117648,9.802796,0.0,0.0006108648,-0.0004581486,-90.9375,11.625,41.68125,watch_1
26353195343894,0.41635114,-0.2117648,9.802796,0.0,0.0006108648,-0.0004581486,-89.15625,11.606251,40.875,watch_1
26353184845665,0.4211368,-0.21655045,9.798011,0.0,0.0006108648,-0.0004581486,-89.15625,11.606251,40.875,watch_1
26353189808425,0.4211368,-0.21655045,9.798011,0.0,0.0006108648,-0.0004581486,-89.15625,11.606251,40.875,watch_1
26353205343842,0.4211368,-0.21655045,9.798011,0.0,0.0006108648,-0.0004581486,-89.4375,13.25625,40.6875,watch_1
26353215343790,0.4211368,-0.21655045,9.798011,0.0,0.0006108648,-0.0004581486,-90.881256,12.056251,42.225002,watch_1
26353208882383,0.40677986,-0.22612174,9.802796,0.0,0.0006108648,-0.0004581486,-90.881256,12.056251,42.225002,watch_1
26353203919623,0.40677986,-0.22612174,9.802796,0.0,0.0006108648,-0.0016798781,-90.881256,12.056251,42.225002,watch_1
26353225343738,0.40677986,-0.22612174,9.802796,0.0,0.0006108648,-0.0016798781,-89.231255,12.1125,42.5625,watch_1
26353235343685,0.40677986,-0.22612174,9.802796,0.0,0.0006108648,-0.0016798781,-87.84375,11.00625,43.40625,watch_1
26353222992644,0.40677986,-0.2117648,9.788439,0.0,-0.0006108648,-0.0016798781,-87.84375,11.00625,43.40625,watch_1
26353227955404,0.40677986,-0.2117648,9.788439,0.0,-0.0006108648,-0.0016798781,-87.84375,11.00625,43.40625,watch_1
26353245343633,0.40677986,-0.2117648,9.788439,0.0,-0.0006108648,-0.0016798781,-89.887505,11.793751,40.78125,watch_1
26353255343581,0.40677986,-0.2117648,9.788439,0.0,-0.0006108648,-0.0016798781,-89.86875,11.75625,42.09375,watch_1
26353242066654,0.41156548,-0.20697916,9.788439,0.0,0.0006108648,-0.0004581486,-89.86875,11.75625,42.09375,watch_1
26353247029415,0.41156548,-0.20697916,9.788439,0.0,0.0006108648,-0.0004581486,-89.86875,11.75625,42.09375,watch_1
26353265343529,0.41156548,-0.20697916,9.788439,0.0,0.0006108648,-0.0004581486,-89.26875,11.700001,42.300003,watch_1
26353275343477,0.41156548,-0.20697916,9.788439,0.0,0.0006108648,-0.0004581486,-88.59375,10.9125,43.331253,watch_1
26353266102383,0.4019942,-0.20697916,9.798011,0.0,-0.0006108648,-0.0004581486,-88.59375,10.9125,43.331253,watch_1
26353261139623,0.4019942,-0.20697916,9.798011,0.0,-0.0006108648,-0.0004581486,-88.59375,10.9125,43.331253,watch_1
26353285343425,0.4019942,-0.20697916,9.798011,0.0,-0.0006108648,-0.0004581486,-90.075005,11.306251,41.9625,watch_1
26353280213633,0.41156548,-0.2117648,9.793225,0.0,0.0006108648,-0.0004581486,-90.075005,11.306251,41.9625,watch_1
26353285176394,0.41156548,-0.2117648,9.793225,0.0,0.0006108648,-0.0004581486,-90.075005,11.306251,41.9625,watch_1
26353295343373,0.41156548,-0.2117648,9.793225,0.0,0.0006108648,-0.0004581486,-90.7125,11.1,41.325,watch_1
26353305343321,0.41156548,-0.2117648,9.793225,0.0,0.0006108648,-0.0004581486,-89.512505,12.562501,40.3125,watch_1
26353299286654,0.40677986,-0.19740787,9.807582,0.0,0.0006108648,-0.0004581486,-89.512505,12.562501,40.3125,watch_1
26353304249415,0.40677986,-0.19740787,9.807582,0.0,0.0006108648,-0.0004581486,-89.512505,12.562501,40.3125,watch_1
26353315343269,0.40677986,-0.19740787,9.807582,0.0,0.0006108648,-0.0004581486,-88.65,13.33125,42.075,watch_1
26353325343217,0.40677986,-0.19740787,9.807582,0.0,0.0006108648,-0.0004581486,-89.606255,13.106251,40.0875,watch_1
26353318329623,0.40677986,-0.21655045,9.793225,0.0,-0.0006108648,-0.0004581486,-89.606255,13.106251,40.0875,watch_1
26353323292383,0.40677986,-0.21655045,9.793225,0.0,-0.0006108648,-0.0004581486,-89.606255,13.106251,40.0875,watch_1
26353345343113,0.40677986,-0.21655045,9.793225,0.0,-0.0006108648,-0.0004581486,-88.9875,11.75625,41.30625,watch_1
26353335343165,0.40677986,-0.21655045,9.793225,0.0,-0.0006108648,-0.0004581486,-88.9875,11.75625,41.30625,watch_1
26353337402644,0.4019942,-0.2213361,9.802796,-0.0012217296,0.0006108648,-0.0004581486,-88.9875,11.75625,41.30625,watch_1
26353342365404,0.4019942,-0.2213361,9.802796,-0.0012217296,0.0006108648,-0.0004581486,-88.9875,11.75625,41.30625,watch_1
26353355343060,0.4019942,-0.2213361,9.802796,-0.0012217296,0.0006108648,-0.0004581486,-90.76875,11.962501,40.5,watch_1
26353365343008,0.4019942,-0.2213361,9.802796,-0.0012217296,0.0006108648,-0.0004581486,-89.0625,12.3,41.831253,watch_1
26353361439415,0.4019942,-0.20697916,9.793225,0.0,-0.0006108648,-0.0004581486,-89.0625,12.3,41.831253,watch_1
26353356476654,0.4019942,-0.20697916,9.793225,0.0,-0.0006108648,-0.0004581486,-89.0625,12.3,41.831253,watch_1
26353375342956,0.4019942,-0.20697916,9.793225,0.0,-0.0006108648,-0.0004581486,-89.793755,11.0625,42.600002,watch_1
26353385342904,0.4019942,-0.20697916,9.793225,0.0,-0.0006108648,-0.0004581486,-89.55,13.368751,41.53125,watch_1
26353395342852,0.4019942,-0.20697916,9.793225,-0.0012217296,0.0006108648,-0.0004581486,-90.356255,10.1625,41.456253,watch_1
26353380512383,0.4019942,-0.20697916,9.793225,-0.0012217296,0.0006108648,-0.0004581486,-90.356255,10.1625,41.456253,watch_1
26353375549623,0.4019942,-0.20697916,9.793225,-0.0012217296,0.0006108648,-0.0004581486,-90.356255,10.1625,41.456253,watch_1
26353405342800,0.40677986,-0.20697916,9.802796,-0.0012217296,0.0006108648,-0.0004581486,-89.043755,11.15625,42.393753,watch_1
26353394623633,0.40677986,-0.20697916,9.802796,-0.0012217296,0.0006108648,-0.0004581486,-89.043755,11.15625,42.393753,watch_1
26353399586394,0.40677986,-0.20697916,9.802796,-0.0012217296,0.0006108648,-0.0004581486,-89.043755,11.15625,42.393753,watch_1
26353415342748,0.40677986,-0.20697916,9.802796,-0.0012217296,0.0006108648,-0.0004581486,-89.86875,11.775001,41.79375,watch_1
26353425342696,0.41156548,-0.20219351,9.793225,0.0,-0.0006108648,-0.0004581486,-89.025,14.156251,41.5125,watch_1
26353413696654,0.41156548,-0.20219351,9.793225,0.0,-0.0006108648,-0.0004581486,-89.025,14.156251,41.5125,watch_1
26353418659415,0.41156548,-0.20219351,9.793225,0.0,-0.0006108648,-0.0004581486,-89.025,14.156251,41.5125,watch_1
26353435342644,0.41156548,-0.20219351,9.793225,0.0,-0.0006108648,-0.0004581486,-89.625,12.637501,41.8875,watch_1
26353445342592,0.41156548,-0.20219351,9.793225,0.0,-0.0006108648,-0.0004581486,-89.418755,13.2375,41.7,watch_1
26353437733425,0.4019942,-0.21655045,9.793225,-0.0012217296,0.0006108648,-0.0004581486,-89.418755,13.2375,41.7,watch_1
26353432770665,0.4019942,-0.21655045,9.793225,-0.0012217296,0.0006108648,-0.0004581486,-89.418755,13.2375,41.7,watch_1
26353455342540,0.4019942,-0.21655045,9.793225,-0.0012217296,0.0006108648,-0.0004581486,-90.375,11.26875,42.506252,watch_1
26353465342488,0.41635114,-0.20697916,9.802796,-0.0012217296,0.0006108648,-0.0004581486,-89.175,11.2875,42.506252,watch_1
26353456806394,0.41635114,-0.20697916,9.802796,0.0,-0.0006108648,-0.0004581486,-89.175,11.2875,42.506252,watch_1
26353451843633,0.41635114,-0.20697916,9.802796,0.0,-0.0006108648,-0.0004581486,-89.175,11.2875,42.506252,watch_1
26353475342435,0.41635114,-0.20697916,9.802796,0.0,-0.0006108648,-0.0004581486,-88.425,12.656251,42.16875,watch_1
26353475880404,0.4019942,-0.2117648,9.802796,0.0,0.0006108648,-0.0004581486,-90.39375,11.306251,40.612503,watch_1
26353485342383,0.4019942,-0.2117648,9.802796,0.0,0.0006108648,-0.0004581486,-90.39375,11.306251,40.612503,watch_1
26353470917644,0.4019942,-0.2117648,9.802796,0.0,0.0006108648,-0.0004581486,-90.39375,11.306251,40.612503,watch_1
26353495342331,0.4019942,-0.2117648,9.802796,0.0,0.0006108648,-0.0004581486,-90.675,11.71875,39.675003,watch_1
26353489990665,0.39720857,-0.2117648,9.802796,-0.0012217296,0.0006108648,-0.0004581486,-90.675,11.71875,39.675003,watch_1
26353494953425,0.39720857,-0.2117648,9.802796,-0.0012217296,0.0006108648,-0.0004581486,-90.675,11.71875,39.675003,watch_1
26353505342279,0.39720857,-0.2117648,9.802796,-0.0012217296,0.0006108648,-0.0004581486,-89.606255,13.106251,40.537502,watch_1
26353515342227,0.39720857,-0.2117648,9.802796,-0.0012217296,0.0006108648,-0.0004581486,-89.606255,13.106251,40.537502,watch_1
26353513996394,0.40677986,-0.20219351,9.793225,0.0,-0.0006108648,-0.0004581486,-89.606255,13.106251,40.537502,watch_1
26353509033633,0.40677986,-0.20219351,9.793225,0.0,-0.0006108648,-0.0004581486,-89.606255,13.106251,40.537502,watch_1
26353525342175,0.40677986,-0.20219351,9.793225,0.0,-0.0006108648,-0.0004581486,-88.78125,12.356251,41.1375,watch_1
26353535342123,0.40677986,-0.20219351,9.793225,0.0,-0.0006108648,-0.0004581486,-89.64375,12.337501,42.91875,watch_1
26353533070404,0.40677986,-0.20697916,9.798011,0.0,-0.0006108648,-0.0004581486,-89.64375,12.337501,42.91875,watch_1
26353545342071,0.40677986,-0.20697916,9.798011,0.0,-0.0006108648,-0.0004581486,-90.075005,12.750001,41.23125,watch_1
26353528107644,0.40677986,-0.20697916,9.798011,0.0,-0.0006108648,-0.0004581486,-90.075005,12.750001,41.23125,watch_1
26353555342019,0.40677986,-0.20697916,9.798011,0.0,-0.0006108648,-0.0004581486,-88.856255,13.218751,40.162502,watch_1
26353547180665,0.42592242,-0.2117648,9.802796,0.0,0.0006108648,-0.0004581486,-90.543755,12.375001,41.943752,watch_1
26353552143425,0.42592242,-0.2117648,9.802796,0.0,0.0006108648,-0.0004581486,-90.543755,12.375001,41.943752,watch_1
26353565341967,0.42592242,-0.2117648,9.802796,0.0,0.0006108648,-0.0004581486,-90.543755,12.375001,41.943752,watch_1
26353575341915,0.41156548,-0.21655045,9.788439,0.0,0.0006108648,-0.0004581486,-90.131256,13.593751,41.006252,watch_1
26353571217383,0.41156548,-0.21655045,9.788439,0.0,0.0006108648,-0.0004581486,-90.131256,13.593751,41.006252,watch_1
26353566254623,0.41156548,-0.21655045,9.788439,-0.0012217296,-0.0006108648,-0.0004581486,-87.61875,13.012501,43.237503,watch_1
26353585341863,0.41156548,-0.21655045,9.788439,-0.0012217296,-0.0006108648,-0.0004581486,-87.61875,13.012501,43.237503,watch_1
26353595341810,0.41156548,-0.21655045,9.788439,-0.0012217296,-0.0006108648,-0.0004581486,-89.943756,12.637501,40.537502,watch_1
26353590290404,0.4019942,-0.20697916,9.793225,-0.0012217296,0.0006108648,-0.0004581486,-90.5625,12.4125,40.93125,watch_1
26353605341758,0.4019942,-0.20697916,9.793225,-0.0012217296,0.0006108648,-0.0004581486,-90.5625,12.4125,40.93125,watch_1
26353585327644,0.4019942,-0.20697916,9.793225,-0.0012217296,0.0006108648,-0.0004581486,-90.5625,12.4125,40.93125,watch_1
26353615341706,0.4019942,-0.21655045,9.802796,-0.0012217296,0.0006108648,-0.0004581486,-89.83125,12.20625,41.025,watch_1
26353609364415,0.4019942,-0.21655045,9.802796,-0.0012217296,0.0006108648,-0.0004581486,-89.83125,12.20625,41.025,watch_1
26353604401654,0.4019942,-0.21655045,9.802796,0.0,0.0006108648,-0.0004581486,-89.887505,11.775001,41.362503,watch_1
26353625341654,0.4019942,-0.21655045,9.802796,0.0,0.0006108648,-0.0004581486,-89.887505,11.775001,41.362503,watch_1
26353635341602,0.4019942,-0.21655045,9.802796,0.0,0.0006108648,-0.0004581486,-89.71875,13.200001,41.662502,watch_1
26353628437383,0.41156548,-0.20219351,9.793225,-0.0012217296,0.0006108648,-0.0004581486,-89.71875,13.200001,41.662502,watch_1
26353623474623,0.41156548,-0.20219351,9.793225,-0.0012217296,0.0006108648,-0.0004581486,-89.71875,13.200001,41.662502,watch_1
26353645341550,0.41156548,-0.20219351,9.793225,-0.0012217296,0.0006108648,-0.0004581486,-90.39375,13.81875,41.53125,watch_1
26353647511394,0.39720857,-0.2117648,9.802796,-0.0012217296,0.0006108648,-0.0004581486,-88.96875,10.6125,41.568752,watch_1
26353655341498,0.39720857,-0.2117648,9.802796,-0.0012217296,0.0006108648,-0.0004581486,-88.96875,10.6125,41.568752,watch_1
26353642548633,0.39720857,-0.2117648,9.802796,0.0,-0.0006108648,-0.0004581486,-88.96875,10.6125,41.568752,watch_1
26353665341446,0.39720857,-0.2117648,9.802796,0.0,-0.0006108648,-0.0004581486,-87.825005,12.918751,40.3125,watch_1
26353675341394,0.4019942,-0.2213361,9.802796,0.0,-0.0006108648,-0.0004581486,-90.075005,12.731251,41.68125,watch_1
26353666584415,0.4019942,-0.2213361,9.802796,0.0,-0.0006108648,-0.0004581486,-90.075005,12.731251,41.68125,watch_1
26353661621654,0.4019942,-0.2213361,9.802796,0.0,-0.0006108648,-0.0004581486,-89.943756,13.89375,41.568752,watch_1
26353685341342,0.4019942,-0.2213361,9.802796,0.0,-0.0006108648,-0.0004581486,-89.943756,13.89375,41.568752,watch_1
26353695341290,0.40677986,-0.19740787,9.783653,0.0,-0.0006108648,-0.0004581486,-88.96875,13.33125,40.725002,watch_1
26353685627383,0.40677986,-0.19740787,9.783653,0.0,-0.0006108648,-0.0004581486,-88.96875,13.33125,40.725002,watch_1
26353680664623,0.40677986,-0.19740787,9.783653,-0.0012217296,0.0006108648,-0.0004581486,-88.96875,13.33125,40.725002,watch_1
26353705341238,0.40677986,-0.19740787,9.783653,-0.0012217296,0.0006108648,-0.0004581486,-88.59375,14.062501,41.287502,watch_1
26353699738633,0.4211368,-0.21655045,9.798011,0.0,-0.0006108648,-0.0004581486,-90.46875,13.106251,41.8875,watch_1
26353715341185,0.4211368,-0.21655045,9.798011,0.0,-0.0006108648,-0.0004581486,-90.46875,13.106251,41.8875,watch_1
26353704701394,0.4211368,-0.21655045,9.798011,0.0,-0.0006108648,-0.0004581486,-90.46875,13.106251,41.8875,watch_1
26353725341133,0.4211368,-0.21655045,9.798011,0.0,-0.0006108648,-0.0004581486,-88.8,13.481251,41.175003,watch_1
26353718811654,0.4211368,-0.21655045,9.798011,0.0,-0.0006108648,-0.0004581486,-88.856255,12.731251,42.24375,watch_1
26353735341081,0.4211368,-0.21655045,9.798011,0.0,-0.0006108648,-0.0004581486,-88.856255,12.731251,42.24375,watch_1
26353723774415,0.4019942,-0.22612174,9.793225,0.0,-0.0006108648,-0.0004581486,-88.856255,12.731251,42.24375,watch_1
26353745341029,0.4019942,-0.22612174,9.793225,0.0,-0.0006108648,-0.0004581486,-89.175,12.69375,42.225002,watch_1
26353742848425,0.41635114,-0.2213361,9.802796,0.0,-0.0006108648,-0.0004581486,-89.175,12.69375,42.225002,watch_1
26353737885665,0.41635114,-0.2213361,9.802796,-0.0012217296,-0.0006108648,-0.0004581486,-89.175,12.69375,42.225002,watch_1
26353755340977,0.41635114,-0.2213361,9.802796,-0.0012217296,-0.0006108648,-0.0004581486,-87.825005,14.156251,41.362503,watch_1
26353765340925,0.41635114,-0.2213361,9.802796,-0.0012217296,-0.0006108648,-0.0004581486,-89.943756,12.618751,41.11875,watch_1
26353756958633,0.41156548,-0.2117648,9.802796,0.0,-0.0006108648,-0.0004581486,-88.762505,9.637501,42.412502,watch_1
26353775340873,0.41156548,-0.2117648,9.802796,0.0,-0.0006108648,-0.0004581486,-88.762505,9.637501,42.412502,watch_1
26353761921394,0.41156548,-0.2117648,9.802796,0.0,-0.0006108648,-0.0004581486,-88.762505,9.637501,42.412502,watch_1
26353785340821,0.41156548,-0.2117648,9.802796,0.0,-0.0006108648,-0.0004581486,-89.5875,13.106251,40.818752,watch_1
26353780995404,0.40677986,-0.2117648,9.793225,0.0,-0.0006108648,-0.0004581486,-89.5875,13.106251,40.818752,watch_1
26353776032644,0.40677986,-0.2117648,9.793225,0.0,-0.0006108648,-0.0004581486,-89.5875,13.106251,40.818752,watch_1
26353795340769,0.40677986,-0.2117648,9.793225,0.0,-0.0006108648,-0.0004581486,-89.83125,13.6125,41.475002,watch_1
26353805340717,0.41635114,-0.20219351,9.798011,-0.0012217296,0.0006108648,-0.0004581486,-88.55625,11.3625,42.5625,watch_1
26353795105665,0.41635114,-0.20219351,9.798011,-0.0012217296,0.0006108648,-0.0004581486,-88.55625,11.3625,42.5625,watch_1
26353800068425,0.41635114,-0.20219351,9.798011,-0.0012217296,0.0006108648,-0.0004581486,-88.55625,11.3625,42.5625,watch_1
26353815340665,0.41635114,-0.20219351,9.798011,-0.0012217296,0.0006108648,-0.0004581486,-92.025,11.53125,40.125,watch_1
26353825340613,0.41635114,-0.20219351,9.798011,-0.0012217296,0.0006108648,-0.0004581486,-88.725006,12.618751,41.831253,watch_1
26353819142383,0.4019942,-0.19740787,9.807582,0.0,0.0006108648,-0.0004581486,-88.725006,12.618751,41.831253,watch_1
26353814179623,0.4019942,-0.19740787,9.807582,0.0,0.0006108648,-0.0004581486,-88.725006,12.618751,41.831253,watch_1
26353835340560,0.4019942,-0.19740787,9.807582,0.0,0.0006108648,-0.0004581486,-89.568756,13.387501,40.5,watch_1
26353845340508,0.4019942,-0.19740787,9.807582,0.0,0.0006108648,-0.0004581486,-89.86875,11.75625,42.375,watch_1
26353838215404,0.4019942,-0.19740787,9.802796,0.0,0.0006108648,-0.0004581486,-89.86875,11.75625,42.375,watch_1
26353833252644,0.4019942,-0.19740787,9.802796,-0.0012217296,0.0006108648,-0.0004581486,-89.86875,11.75625,42.375,watch_1
26353855340456,0.4019942,-0.19740787,9.802796,-0.0012217296,0.0006108648,-0.0004581486,-90.525,12.675,41.925003,watch_1
26353865340404,0.4019942,-0.19740787,9.802796,-0.0012217296,0.0006108648,-0.0004581486,-90.037506,11.587501,42.225002,watch_1
26353852295665,0.4019942,-0.20697916,9.802796,-0.0012217296,-0.0006108648,-0.0004581486,-90.037506,11.587501,42.225002,watch_1
26353875340352,0.4019942,-0.20697916,9.802796,-0.0012217296,-0.0006108648,-0.0004581486,-88.6875,11.8125,40.7625,watch_1
26353857258425,0.4019942,-0.20697916,9.802796,-0.0012217296,-0.0006108648,-0.0004581486,-88.6875,11.8125,40.7625,watch_1
26353885340300,0.41635114,-0.2117648,9.793225,-0.0012217296,-0.0006108648,-0.0004581486,-90.318756,10.125,43.5,watch_1
26353876332383,0.41635114,-0.2117648,9.793225,-0.0012217296,-0.0006108648,-0.0004581486,-90.318756,10.125,43.5,watch_1
26353871369623,0.41635114,-0.2117648,9.793225,-0.0012217296,-0.0006108648,-0.0004581486,-90.318756,10.125,43.5,watch_1
26353895340248,0.41635114,-0.2117648,9.793225,-0.0012217296,-0.0006108648,-0.0004581486,-89.26875,8.681251,44.34375,watch_1
26353895405404,0.41635114,-0.19740787,9.793225,-0.0012217296,0.0006108648,-0.0004581486,-90.375,9.69375,42.956253,watch_1
26353890442644,0.41635114,-0.19740787,9.793225,-0.0012217296,0.0006108648,-0.0004581486,-90.375,9.69375,42.956253,watch_1
26353905340196,0.41635114,-0.19740787,9.793225,-0.0012217296,0.0006108648,-0.0004581486,-90.375,9.69375,42.956253,watch_1
26353915340144,0.41635114,-0.19740787,9.793225,-0.0012217296,0.0006108648,-0.0004581486,-87.9375,11.90625,40.40625,watch_1
26353914478425,0.40677986,-0.2117648,9.793225,0.0,-0.0006108648,-0.0004581486,-87.9375,11.90625,40.40625,watch_1
26353909515665,0.40677986,-0.2117648,9.793225,0.0,-0.0006108648,-0.0004581486,-87.9375,11.90625,40.40625,watch_1
26353925340092,0.40677986,-0.2117648,9.793225,0.0,-0.0006108648,-0.0004581486,-88.200005,10.387501,43.725002,watch_1
26353935340040,0.40677986,-0.2117648,9.793225,0.0,-0.0006108648,-0.0004581486,-89.662506,12.0375,43.96875,watch_1
26353933552383,0.39720857,-0.2117648,9.793225,0.0,-0.0006108648,-0.0004581486,-89.662506,12.0375,43.96875,watch_1
26353928589623,0.39720857,-0.2117648,9.793225,-0.0012217296,-0.0006108648,-0.0004581486,-89.662506,10.70625,44.456253,watch_1
26353945339988,0.39720857,-0.2117648,9.793225,-0.0012217296,-0.0006108648,-0.0004581486,-87.84375,10.70625,44.456253,watch_1
26353955339935,0.39720857,-0.2117648,9.793225,-0.0012217296,-0.0006108648,-0.0004581486,-88.18125,10.368751,44.737503,watch_1
26353952625404,0.39720857,-0.21655045,9.802796,-0.0012217296,-0.0006108648,-0.0004581486,-88.18125,10.368751,44.737503,watch_1
26353947662644,0.39720857,-0.21655045,9.802796,-0.0012217296,0.0006108648,-0.0004581486,-88.875,9.75,42.825,watch_1
26353965339883,0.39720857,-0.21655045,9.802796,-0.0012217296,0.0006108648,-0.0004581486,-88.875,9.75,42.825,watch_1
26353975339831,0.39720857,-0.21655045,9.802796,-0.0012217296,0.0006108648,-0.0004581486,-90.1875,9.993751,43.0875,watch_1
26353971699415,0.4211368,-0.2117648,9.793225,-0.0012217296,-0.0006108648,-0.0016798781,-90.1875,9.993751,43.0875,watch_1
26353966736654,0.4211368,-0.2117648,9.793225,-0.0012217296,-0.0006108648,-0.0016798781,-90.1875,9.993751,43.0875,watch_1
26353985339779,0.4211368,-0.2117648,9.793225,-0.0012217296,-0.0006108648,-0.0016798781,-88.93125,10.575001,43.331253,watch_1
26353995339727,0.4211368,-0.2117648,9.793225,-0.0012217296,-0.0006108648,-0.0016798781,-87.24375,10.950001,43.331253,watch_1
26353990772383,0.41156548,-0.20697916,9.788439,0.0,-0.0006108648,-0.0004581486,-87.24375,10.950001,43.331253,watch_1
26353985809623,0.41156548,-0.20697916,9.788439,0.0,-0.0006108648,-0.0004581486,-87.24375,10.950001,43.331253,watch_1
26354005339675,0.41156548,-0.20697916,9.788439,0.0,-0.0006108648,-0.0004581486,-89.175,12.712501,41.193752,watch_1
26354015339623,0.41156548,-0.20697916,9.788439,0.0,-0.0006108648,-0.0004581486,-88.425,12.656251,42.16875,watch_1
26354009846394,0.41156548,-0.2117648,9.798011,-0.0012217296,0.0006108648,-0.0004581486,-88.425,12.656251,42.16875,watch_1
26354004883633,0.41156548,-0.2117648,9.798011,-0.0012217296,0.0006108648,-0.0004581486,-88.425,12.656251,42.16875,watch_1
26354025339571,0.41156548,-0.2117648,9.798011,-0.0012217296,0.0006108648,-0.0004581486,-89.0625,12.281251,42.131252,watch_1
26354035339519,0.41156548,-0.2117648,9.798011,-0.0012217296,0.0006108648,-0.0004581486,-89.887505,13.031251,41.8125,watch_1
26354028889415,0.39720857,-0.20697916,9.812367,0.0,0.0006108648,-0.0004581486,-89.775,12.7875,41.268753,watch_1
26354023926654,0.39720857,-0.20697916,9.812367,0.0,0.0006108648,-0.0004581486,-89.775,12.7875,41.268753,watch_1
26354045339467,0.39720857,-0.20697916,9.812367,0.0,0.0006108648,-0.0004581486,-89.775,12.7875,41.268753,watch_1
26354055339415,0.40677986,-0.2117648,9.793225,0.0,0.0006108648,-0.0004581486,-88.912506,12.468751,41.7,watch_1
26354047962383,0.40677986,-0.2117648,9.793225,0.0,0.0006108648,-0.0004581486,-88.912506,12.468751,41.7,watch_1
26354042999623,0.40677986,-0.2117648,9.793225,-0.0012217296,-0.0006108648,-0.0004581486,-90.76875,10.6875,40.350002,watch_1
26354065339363,0.40677986,-0.2117648,9.793225,-0.0012217296,-0.0006108648,-0.0004581486,-90.76875,10.6875,40.350002,watch_1
26354075339310,0.40677986,-0.2117648,9.793225,-0.0012217296,-0.0006108648,-0.0004581486,-88.6875,12.900001,42.393753,watch_1
26354062073633,0.41156548,-0.20697916,9.798011,0.0,-0.0006108648,-0.0004581486,-88.6875,12.900001,42.393753,watch_1
26354067036394,0.41156548,-0.20697916,9.798011,0.0,-0.0006108648,-0.0004581486,-88.6875,12.900001,42.393753,watch_1
26354085339258,0.41156548,-0.20697916,9.798011,0.0,-0.0006108648,-0.0004581486,-90.675,11.400001,41.006252,watch_1
26354086109415,0.40677986,-0.2117648,9.802796,0.0,-0.0006108648,-0.0004581486,-87.075005,12.675,42.46875,watch_1
26354095339206,0.40677986,-0.2117648,9.802796,0.0,-0.0006108648,-0.0004581486,-87.075005,12.675,42.46875,watch_1
26354105339154,0.40677986,-0.2117648,9.802796,-0.0012217296,-0.0006108648,-0.0004581486,-89.418755,13.25625,40.96875,watch_1
26354081146654,0.40677986,-0.2117648,9.802796,-0.0012217296,-0.0006108648,-0.0004581486,-89.418755,13.25625,40.96875,watch_1
26354100220665,0.41156548,-0.2213361,9.793225,-0.0012217296,0.0018325944,-0.0004581486,-89.793755,12.806251,39.956253,watch_1
26354115339102,0.41156548,-0.2213361,9.793225,-0.0012217296,0.0018325944,-0.0004581486,-89.793755,12.806251,39.956253,watch_1
26354105183425,0.41156548,-0.2213361,9.793225,-0.0012217296,0.0018325944,-0.0004581486,-89.793755,12.806251,39.956253,watch_1
26354125339050,0.41156548,-0.2213361,9.793225,-0.0012217296,0.0018325944,-0.0004581486,-89.7375,10.21875,42.54375,watch_1
26354135338998,0.41156548,-0.2213361,9.793225,0.0,0.0006108648,-0.0004581486,-89.662506,13.950001,40.59375,watch_1
26354124256394,0.4019942,-0.2117648,9.807582,0.0,0.0006108648,-0.0004581486,-89.662506,13.950001,40.59375,watch_1
26354119293633,0.41156548,-0.2213361,9.793225,0.0,0.0006108648,-0.0004581486,-89.662506,13.950001,40.59375,watch_1
26354145338946,0.4019942,-0.2117648,9.807582,0.0,0.0006108648,-0.0004581486,-88.59375,12.4875,42.300003,watch_1
26354143330404,0.4019942,-0.20697916,9.783653,-0.0012217296,-0.0006108648,-0.0004581486,-88.59375,12.4875,42.300003,watch_1
26354138367644,0.4019942,-0.20697916,9.783653,-0.0012217296,-0.0006108648,-0.0004581486,-88.59375,12.4875,42.300003,watch_1
26354155338894,0.4019942,-0.20697916,9.783653,-0.0012217296,-0.0006108648,-0.0004581486,-88.668755,11.775001,42.375,watch_1
26354165338842,0.4019942,-0.20697916,9.783653,-0.0012217296,-0.0006108648,-0.0004581486,-89.45625,12.806251,41.737503,watch_1
26354162403425,0.41156548,-0.2117648,9.798011,0.0,0.0006108648,-0.0004581486,-89.45625,12.806251,41.737503,watch_1
26354157440665,0.41156548,-0.2117648,9.798011,0.0,0.0006108648,-0.0004581486,-89.45625,12.806251,41.737503,watch_1
26354175338790,0.41156548,-0.2117648,9.798011,0.0,0.0006108648,-0.0004581486,-89.043755,12.58125,41.8125,watch_1
26354185338738,0.41156548,-0.2117648,9.798011,0.0,0.0006108648,-0.0004581486,-89.775,12.7875,40.96875,watch_1
26354181477383,0.40677986,-0.2117648,9.793225,0.0,0.0006108648,-0.0004581486,-89.775,12.7875,40.96875,watch_1
26354195338685,0.40677986,-0.2117648,9.793225,0.0,-0.0018325944,-0.0004581486,-89.475006,12.825001,41.006252,watch_1
26354176514623,0.40677986,-0.2117648,9.793225,0.0,-0.0018325944,-0.0004581486,-89.475006,12.825001,41.006252,watch_1
26354205338633,0.40677986,-0.2117648,9.793225,0.0,-0.0018325944,-0.0004581486,-90.3375,12.056251,39.09375,watch_1
26354195557644,0.41635114,-0.2213361,9.798011,-0.0012217296,0.0006108648,-0.0004581486,-90.3375,12.056251,39.09375,watch_1
26354200520404,0.41635114,-0.2213361,9.798011,-0.0012217296,0.0006108648,-0.0004581486,-90.3375,12.056251,39.09375,watch_1
26354215338581,0.41635114,-0.2213361,9.798011,-0.0012217296,0.0006108648,-0.0004581486,-90.76875,11.962501,40.800003,watch_1
26354225338529,0.41635114,-0.2213361,9.798011,-0.0012217296,0.0006108648,-0.0004581486,-89.381256,13.218751,43.3125,watch_1
26354219593425,0.41156548,-0.2117648,9.798011,0.0,-0.0006108648,-0.0004581486,-89.381256,13.218751,43.3125,watch_1
26354214630665,0.41156548,-0.2117648,9.798011,0.0,-0.0006108648,-0.0004581486,-89.381256,13.218751,43.3125,watch_1
26354235338477,0.41156548,-0.2117648,9.798011,0.0,-0.0006108648,-0.0004581486,-87.9,11.85,43.18125,watch_1
26354245338425,0.41156548,-0.2117648,9.798011,0.0,-0.0006108648,-0.0004581486,-89.34375,11.118751,42.35625,watch_1
26354238667383,0.4019942,-0.21655045,9.793225,-0.0012217296,-0.0006108648,-0.0004581486,-89.34375,11.118751,42.35625,watch_1
26354233704623,0.4019942,-0.21655045,9.793225,-0.0012217296,-0.0006108648,-0.0004581486,-89.34375,11.118751,42.35625,watch_1
26354255338373,0.4019942,-0.21655045,9.793225,-0.0012217296,-0.0006108648,-0.0004581486,-87.543755,12.637501,41.831253,watch_1
26354257740404,0.41635114,-0.21655045,9.802796,-0.0012217296,-0.0006108648,-0.0004581486,-90.61875,13.2375,41.41875,watch_1
26354265338321,0.41635114,-0.21655045,9.802796,-0.0012217296,-0.0006108648,-0.0004581486,-90.61875,13.2375,41.41875,watch_1
26354252777644,0.41635114,-0.21655045,9.802796,0.0,0.0006108648,-0.0004581486,-90.61875,13.2375,41.41875,watch_1
26354275338269,0.41635114,-0.21655045,9.802796,0.0,0.0006108648,-0.0004581486,-88.59375,12.50625,41.71875,watch_1
26354285338217,0.41635114,-0.21655045,9.802796,0.0,0.0006108648,-0.0004581486,-89.15625,13.1625,40.143753,watch_1
26354276814415,0.41156548,-0.20697916,9.793225,-0.0012217296,-0.0006108648,-0.0004581486,-89.15625,13.1625,40.143753,watch_1
26354271851654,0.41156548,-0.20697916,9.793225,-0.0012217296,-0.0006108648,-0.0004581486,-89.15625,13.1625,40.143753,watch_1
26354295338165,0.41156548,-0.20697916,9.793225,-0.0012217296,-0.0006108648,-0.0004581486,-87.95625,12.69375,43.237503,watch_1
26354305338113,0.41156548,-0.20697916,9.793225,-0.0012217296,0.0006108648,-0.0004581486,-89.043755,12.262501,43.443752,watch_1
26354290924623,0.41156548,-0.20697916,9.793225,-0.0012217296,0.0006108648,-0.0004581486,-89.043755,12.262501,43.443752,watch_1
26354295887383,0.41156548,-0.20219351,9.798011,-0.0012217296,0.0006108648,-0.0004581486,-89.043755,12.262501,43.443752,watch_1
26354315338060,0.41156548,-0.20219351,9.798011,-0.0012217296,0.0006108648,-0.0004581486,-89.775,11.043751,43.331253,watch_1
26354314961394,0.40677986,-0.20697916,9.798011,-0.0012217296,-0.0006108648,-0.0016798781,-89.775,11.043751,43.331253,watch_1
26354309998633,0.40677986,-0.20697916,9.798011,-0.0012217296,-0.0006108648,-0.0016798781,-89.30625,11.08125,44.4,watch_1
26354325338008,0.40677986,-0.20697916,9.798011,-0.0012217296,-0.0006108648,-0.0016798781,-89.30625,11.08125,44.4,watch_1
26354335337956,0.40677986,-0.20697916,9.798011,-0.0012217296,-0.0006108648,-0.0016798781,-91.725006,13.14375,38.831253,watch_1
26354329071654,0.40677986,-0.20697916,9.798011,0.0,-0.0006108648,-0.0004581486,-90.1125,12.13125,42.75,watch_1
26354345337904,0.41156548,-0.2213361,9.783653,0.0,-0.0006108648,-0.0004581486,-90.1125,12.13125,42.75,watch_1
26354334034415,0.41156548,-0.2213361,9.783653,0.0,-0.0006108648,-0.0004581486,-90.1125,12.13125,42.75,watch_1
26354355337852,0.41156548,-0.2213361,9.783653,0.0,-0.0006108648,-0.0004581486,-90.600006,13.5375,40.66875,watch_1
26354353108425,0.41635114,-0.20219351,9.802796,0.0,0.0006108648,-0.0004581486,-90.600006,13.5375,40.66875,watch_1
26354348145665,0.41635114,-0.20219351,9.802796,0.0,0.0006108648,-0.0004581486,-88.8,13.462501,41.60625,watch_1
26354365337800,0.41635114,-0.20219351,9.802796,0.0,0.0006108648,-0.0004581486,-88.8,13.462501,41.60625,watch_1
26354375337748,0.41635114,-0.20219351,9.802796,0.0,0.0006108648,-0.0004581486,-89.34375,13.968751,40.912502,watch_1
26354372181394,0.40677986,-0.20697916,9.798011,0.0,-0.0006108648,-0.0004581486,-89.34375,13.968751,40.912502,watch_1
26354367218633,0.40677986,-0.20697916,9.798011,0.0,-0.0006108648,-0.0004581486,-89.34375,13.968751,40.912502,watch_1
26354385337696,0.40677986,-0.20697916,9.798011,0.0,-0.0006108648,-0.0004581486,-89.193756,12.731251,40.912502,watch_1
26354395337644,0.40677986,-0.20697916,9.798011,0.0,-0.0006108648,-0.0004581486,-89.606255,13.106251,40.537502,watch_1
26354391224415,0.41156548,-0.20697916,9.802796,0.0,0.0006108648,-0.0004581486,-89.606255,13.106251,40.537502,watch_1
26354386261654,0.41156548,-0.20697916,9.802796,0.0,0.0006108648,-0.0004581486,-89.606255,13.106251,40.537502,watch_1
26354405337592,0.41156548,-0.20697916,9.802796,0.0,0.0006108648,-0.0004581486,-89.625,14.231251,40.85625,watch_1
26354415337540,0.41156548,-0.20697916,9.802796,0.0,0.0006108648,-0.0004581486,-89.53125,13.35,42.84375,watch_1
26354410298425,0.41635114,-0.20697916,9.802796,0.0,-0.0006108648,-0.0004581486,-89.53125,13.35,42.84375,watch_1
26354425337488,0.41635114,-0.20697916,9.802796,0.0,-0.0006108648,-0.0004581486,-91.575005,13.012501,39.45,watch_1
26354405335665,0.41635114,-0.20697916,9.802796,0.0,-0.0006108648,-0.0004581486,-91.575005,13.012501,39.45,watch_1
26354435337435,0.41635114,-0.20697916,9.802796,0.0,-0.0006108648,-0.0004581486,-90.825005,11.212501,41.8875,watch_1
26354429371394,0.40677986,-0.2117648,9.788439,0.0,-0.0006108648,-0.0004581486,-90.825005,11.212501,41.8875,watch_1
26354424408633,0.40677986,-0.2117648,9.788439,0.0,-0.0006108648,-0.0004581486,-90.825005,11.212501,41.8875,watch_1
26354445337383,0.40677986,-0.2117648,9.788439,0.0,-0.0006108648,-0.0004581486,-88.481255,13.81875,40.143753,watch_1
26354455337331,0.40677986,-0.2117648,9.788439,0.0,-0.0006108648,-0.0004581486,-90.075005,11.64375,40.18125,watch_1
26354448445404,0.41156548,-0.2117648,9.798011,0.0,-0.0006108648,-0.0004581486,-90.075005,11.64375,40.18125,watch_1
26354443482644,0.41156548,-0.2117648,9.798011,0.0,-0.0006108648,-0.0004581486,-90.075005,11.64375,40.18125,watch_1
26354465337279,0.41156548,-0.2117648,9.798011,0.0,-0.0006108648,-0.0004581486,-89.86875,11.75625,42.09375,watch_1
26354475337227,0.41156548,-0.2117648,9.798011,0.0,-0.0006108648,-0.0004581486,-90.95625,10.21875,41.23125,watch_1
26354467518425,0.41635114,-0.2117648,9.802796,0.0,-0.0006108648,0.00076358096,-90.95625,10.21875,41.23125,watch_1
26354462555665,0.41635114,-0.2117648,9.802796,0.0,-0.0006108648,0.00076358096,-90.95625,10.21875,41.23125,watch_1
26354485337175,0.41635114,-0.2117648,9.802796,0.0,-0.0006108648,0.00076358096,-91.350006,12.168751,40.706253,watch_1
26354495337123,0.41635114,-0.2117648,9.802796,0.0,-0.0006108648,0.00076358096,-88.5,11.606251,44.006252,watch_1
26354486592383,0.4019942,-0.20219351,9.783653,0.0,-0.0006108648,0.00076358096,-88.5,11.606251,44.006252,watch_1
26354481629623,0.4019942,-0.20219351,9.783653,-0.0012217296,0.0006108648,-0.0004581486,-88.5,11.606251,44.006252,watch_1
26354505337071,0.4019942,-0.20219351,9.783653,-0.0012217296,0.0006108648,-0.0004581486,-91.275,12.88125,40.65,watch_1
26354505665404,0.41156548,-0.21655045,9.817153,-0.0012217296,0.0006108648,-0.0004581486,-90.3,12.0,41.86875,watch_1
26354515337019,0.41156548,-0.21655045,9.817153,-0.0012217296,0.0006108648,-0.0004581486,-90.3,12.0,41.86875,watch_1
26354500702644,0.41156548,-0.21655045,9.817153,0.0,0.0006108648,-0.0004581486,-90.3,12.0,41.86875,watch_1
26354525336967,0.41156548,-0.21655045,9.817153,0.0,0.0006108648,-0.0004581486,-92.325005,11.15625,42.15,watch_1
26354524739415,0.41635114,-0.21655045,9.783653,-0.0012217296,-0.0018325944,-0.0004581486,-92.325005,11.15625,42.15,watch_1
26354519776654,0.41635114,-0.21655045,9.783653,-0.0012217296,-0.0018325944,-0.0004581486,-92.325005,11.15625,42.15,watch_1
26354535336915,0.41635114,-0.21655045,9.783653,-0.0012217296,-0.0018325944,-0.0004581486,-89.0625,12.3,41.831253,watch_1
26354545336863,0.41635114,-0.21655045,9.783653,-0.0012217296,-0.0018325944,-0.0004581486,-89.90625,11.475,41.8125,watch_1
26354543812383,0.40677986,-0.20697916,9.802796,-0.0012217296,0.0006108648,-0.0004581486,-89.90625,11.475,41.8125,watch_1
26354538849623,0.40677986,-0.20697916,9.802796,-0.0012217296,0.0006108648,-0.0004581486,-89.90625,11.475,41.8125,watch_1
26354555336810,0.40677986,-0.20697916,9.802796,-0.0012217296,0.0006108648,-0.0004581486,-89.49375,12.525001,41.756252,watch_1
26354565336758,0.40677986,-0.20697916,9.802796,-0.0012217296,0.0006108648,-0.0004581486,-88.818756,13.1625,42.206253,watch_1
26354562855404,0.41156548,-0.21655045,9.802796,0.0,-0.0006108648,-0.0004581486,-88.818756,13.1625,42.206253,watch_1
26354557892644,0.41156548,-0.21655045,9.802796,0.0,-0.0006108648,-0.0004581486,-88.818756,13.1625,42.206253,watch_1
26354575336706,0.41156548,-0.21655045,9.802796,0.0,-0.0006108648,-0.0004581486,-89.71875,13.218751,41.23125,watch_1
26354585336654,0.41156548,-0.21655045,9.802796,0.0,-0.0006108648,-0.0004581486,-88.93125,12.168751,41.71875,watch_1
26354581928425,0.40677986,-0.2117648,9.778868,0.0,-0.0006108648,-0.0004581486,-88.93125,12.168751,41.71875,watch_1
26354576965665,0.40677986,-0.2117648,9.778868,-0.0012217296,0.0018325944,-0.0004581486,-89.64375,10.762501,43.95,watch_1
26354595336602,0.40677986,-0.2117648,9.778868,-0.0012217296,0.0018325944,-0.0004581486,-89.64375,10.762501,43.95,watch_1
26354605336550,0.40677986,-0.2117648,9.778868,-0.0012217296,0.0018325944,-0.0004581486,-89.4,10.05,45.206253,watch_1
26354601002383,0.41156548,-0.20219351,9.802796,0.0,-0.0006108648,-0.0004581486,-89.4,10.05,45.206253,watch_1
26354615336498,0.41156548,-0.20219351,9.802796,0.0,-0.0006108648,-0.0004581486,-88.818756,8.587501,44.850002,watch_1
26354625336446,0.41635114,-0.20219351,9.788439,0.0,-0.0006108648,-0.0004581486,-88.818756,8.587501,44.850002,watch_1
26354620075404,0.41635114,-0.20219351,9.788439,-0.0012217296,-0.0018325944,-0.0004581486,-88.818756,8.587501,44.850002,watch_1
26354635336394,0.41635114,-0.20219351,9.788439,-0.0012217296,-0.0018325944,-0.0004581486,-87.356255,9.6,45.487503,watch_1
26354615112644,0.41635114,-0.20219351,9.788439,-0.0012217296,-0.0018325944,-0.0004581486,-87.356255,9.6,45.487503,watch_1
26354596039623,0.41635114,-0.20219351,9.788439,-0.0012217296,-0.0018325944,-0.0004581486,-87.356255,9.6,45.487503,watch_1
26354645336342,0.41635114,-0.20219351,9.788439,-0.0012217296,-0.0018325944,-0.0004581486,-88.875,10.837501,45.3375,watch_1
26354639149415,0.39720857,-0.20219351,9.807582,-0.0012217296,-0.0018325944,-0.0004581486,-88.875,10.837501,45.3375,watch_1
26354634186654,0.39720857,-0.20219351,9.807582,-0.0012217296,0.0018325944,-0.0004581486,-88.875,10.837501,45.3375,watch_1
26354655336290,0.39720857,-0.20219351,9.807582,-0.0012217296,0.0018325944,-0.0004581486,-87.450005,8.56875,46.893753,watch_1
26354665336238,0.39720857,-0.20219351,9.807582,-0.0012217296,0.0018325944,-0.0004581486,-87.450005,8.26875,48.225002,watch_1
26354658222383,0.41156548,-0.2117648,9.802796,-0.0012217296,0.0018325944,-0.0004581486,-87.450005,8.26875,48.225002,watch_1
26354653259623,0.41156548,-0.2117648,9.802796,0.0,-0.0006108648,-0.0004581486,-87.450005,8.26875,48.225002,watch_1
26354675336185,0.41156548,-0.2117648,9.802796,0.0,-0.0006108648,-0.0004581486,-89.025,12.562501,42.393753,watch_1
26354685336133,0.41156548,-0.2117648,9.802796,0.0,-0.0006108648,-0.0004581486,-88.387505,9.76875,45.35625,watch_1
26354677296394,0.4211368,-0.21655045,9.802796,0.0,-0.0006108648,-0.0004581486,-88.387505,9.76875,45.35625,watch_1
26354672333633,0.4211368,-0.21655045,9.802796,-0.0012217296,0.0006108648,-0.0004581486,-88.387505,9.76875,45.35625,watch_1
26354695336081,0.4211368,-0.21655045,9.802796,-0.0012217296,0.0006108648,-0.0004581486,-89.100006,10.40625,43.7625,watch_1
26354705336029,0.4211368,-0.21655045,9.802796,-0.0012217296,0.0006108648,-0.0004581486,-87.543755,10.725,44.775,watch_1
26354696369415,0.41635114,-0.21655045,9.798011,0.0,0.0006108648,-0.0004581486,-87.543755,10.725,44.775,watch_1
26354691406654,0.41635114,-0.21655045,9.798011,0.0,0.0006108648,-0.0004581486,-87.543755,10.725,44.775,watch_1
26354715335977,0.41635114,-0.21655045,9.798011,0.0,0.0006108648,-0.0004581486,-89.100006,11.512501,44.8125,watch_1
26354725335925,0.41635114,-0.21655045,9.798011,0.0,0.0006108648,-0.0004581486,-88.106255,9.825001,43.93125,watch_1
26354715443425,0.40677986,-0.21655045,9.802796,0.0,0.0006108648,-0.0004581486,-88.106255,9.825001,43.93125,watch_1
26354710480665,0.40677986,-0.21655045,9.802796,0.0,-0.0006108648,-0.0004581486,-88.106255,9.825001,43.93125,watch_1
26354735335873,0.40677986,-0.21655045,9.802796,0.0,-0.0006108648,-0.0004581486,-88.200005,8.793751,45.037502,watch_1
26354734486394,0.41156548,-0.21655045,9.783653,0.0,0.0006108648,-0.0004581486,-88.200005,8.793751,45.037502,watch_1
26354729523633,0.41156548,-0.21655045,9.783653,0.0,0.0006108648,-0.0004581486,-88.200005,8.793751,45.037502,watch_1
26354745335821,0.41156548,-0.21655045,9.783653,0.0,0.0006108648,-0.0004581486,-88.89375,10.856251,44.025,watch_1
26354755335769,0.41156548,-0.21655045,9.783653,0.0,0.0006108648,-0.0004581486,-89.700005,12.075001,41.643753,watch_1
26354753559415,0.40677986,-0.20219351,9.807582,0.0,0.0006108648,-0.0004581486,-89.700005,12.075001,41.643753,watch_1
26354748596654,0.40677986,-0.20219351,9.807582,0.0,0.0018325944,-0.0004581486,-89.700005,12.075001,41.643753,watch_1
26354765335717,0.40677986,-0.20219351,9.807582,0.0,0.0018325944,-0.0004581486,-87.8625,10.70625,44.15625,watch_1
26354775335665,0.40677986,-0.20219351,9.807582,0.0,0.0018325944,-0.0004581486,-90.46875,10.2375,43.331253,watch_1
26354767670665,0.4019942,-0.20697916,9.802796,0.0,-0.0006108648,-0.0004581486,-90.46875,10.2375,43.331253,watch_1
26354772633425,0.4019942,-0.20697916,9.802796,0.0,-0.0006108648,-0.0004581486,-90.46875,10.2375,43.331253,watch_1
26354795335560,0.4019942,-0.20697916,9.802796,0.0,-0.0006108648,-0.0004581486,-90.1875,11.418751,42.80625,watch_1
26354791706394,0.4019942,-0.21655045,9.802796,0.0,-0.0006108648,-0.0004581486,-90.1875,11.418751,42.80625,watch_1
26354785335613,0.4019942,-0.20697916,9.802796,0.0,-0.0006108648,-0.0004581486,-90.1875,11.418751,42.80625,watch_1
26354786743633,0.4019942,-0.21655045,9.802796,-0.0012217296,-0.0006108648,-0.0004581486,-90.1875,11.418751,42.80625,watch_1
26354805335508,0.4019942,-0.21655045,9.802796,-0.0012217296,-0.0006108648,-0.0004581486,-89.71875,11.625,42.99375,watch_1
26354815335456,0.4019942,-0.21655045,9.802796,-0.0012217296,-0.0006108648,-0.0004581486,-88.51875,11.2875,45.6375,watch_1
26354810780404,0.41156548,-0.20697916,9.807582,-0.0012217296,-0.0006108648,-0.0004581486,-88.51875,11.2875,45.6375,watch_1
26354805817644,0.41156548,-0.20697916,9.807582,0.0,-0.0006108648,-0.0004581486,-88.51875,11.2875,45.6375,watch_1
26354825335404,0.41156548,-0.20697916,9.807582,0.0,-0.0006108648,-0.0004581486,-88.0875,9.806251,45.393753,watch_1
26354835335352,0.41156548,-0.20697916,9.807582,0.0,-0.0006108648,-0.0004581486,-89.8125,11.0625,41.71875,watch_1
26354824890665,0.41635114,-0.20697916,9.793225,0.0,0.0006108648,-0.0004581486,-89.8125,11.0625,41.71875,watch_1
26354829853425,0.41635114,-0.20697916,9.793225,0.0,0.0006108648,-0.0004581486,-89.8125,11.0625,41.71875,watch_1
26354845335300,0.41635114,-0.20697916,9.793225,0.0,0.0006108648,-0.0004581486,-86.887505,9.825001,44.943752,watch_1
26354855335248,0.41156548,-0.20219351,9.807582,0.0,0.0006108648,-0.0004581486,-88.818756,11.587501,42.956253,watch_1
26354848927383,0.41156548,-0.20219351,9.807582,0.0,0.0006108648,-0.0004581486,-88.818756,11.587501,42.956253,watch_1
26354843964623,0.41156548,-0.20219351,9.807582,0.0,0.0018325944,-0.0004581486,-88.818756,11.587501,42.956253,watch_1
26354865335196,0.41156548,-0.20219351,9.807582,0.0,0.0018325944,-0.0004581486,-90.3375,11.56875,41.90625,watch_1
26354875335144,0.41156548,-0.20219351,9.807582,0.0,0.0018325944,-0.0004581486,-89.325005,11.1,43.36875,watch_1
26354868000404,0.4019942,-0.20219351,9.793225,0.0,-0.0006108648,-0.0004581486,-89.325005,11.1,43.36875,watch_1
26354863037644,0.4019942,-0.20219351,9.793225,0.0,-0.0006108648,-0.0004581486,-89.325005,11.1,43.36875,watch_1
26354885335092,0.4019942,-0.20219351,9.793225,0.0,-0.0006108648,-0.0004581486,-88.59375,12.4875,42.600002,watch_1
26354895335040,0.4019942,-0.20219351,9.793225,0.0,-0.0006108648,-0.0004581486,-89.043755,10.6875,44.756252,watch_1
26354882111654,0.4019942,-0.20219351,9.793225,-0.0012217296,0.0006108648,-0.0004581486,-89.043755,10.6875,44.756252,watch_1
26354887074415,0.4211368,-0.2117648,9.807582,-0.0012217296,0.0006108648,-0.0004581486,-89.043755,10.6875,44.756252,watch_1
26354905334988,0.4211368,-0.2117648,9.807582,-0.0012217296,0.0006108648,-0.0004581486,-88.668755,10.35,42.65625,watch_1
26354906117383,0.4211368,-0.2213361,9.798011,-0.0012217296,0.0006108648,-0.0004581486,-89.606255,11.19375,43.48125,watch_1
26354915334935,0.4211368,-0.2213361,9.798011,-0.0012217296,0.0006108648,-0.0004581486,-89.606255,11.19375,43.48125,watch_1
26354901154623,0.4211368,-0.2213361,9.798011,-0.0012217296,-0.0006108648,-0.0004581486,-89.606255,11.19375,43.48125,watch_1
26354925334883,0.4211368,-0.2213361,9.798011,-0.0012217296,-0.0006108648,-0.0004581486,-89.981255,12.01875,42.1875,watch_1
26354925190404,0.40677986,-0.2117648,9.793225,-0.0012217296,-0.0006108648,-0.0004581486,-89.981255,12.01875,42.1875,watch_1
26354920227644,0.40677986,-0.2117648,9.793225,-0.0012217296,-0.0006108648,-0.0004581486,-89.981255,12.01875,42.1875,watch_1
26354935334831,0.40677986,-0.2117648,9.793225,-0.0012217296,-0.0006108648,-0.0004581486,-89.625,13.9125,42.1875,watch_1
26354945334779,0.40677986,-0.2117648,9.793225,-0.0012217296,-0.0006108648,-0.0004581486,-89.53125,15.243751,39.75,watch_1
26354944264415,0.41156548,-0.2117648,9.798011,-0.0012217296,-0.0006108648,-0.0004581486,-89.53125,15.243751,39.75,watch_1
26354939301654,0.41156548,-0.2117648,9.798011,0.0,0.0006108648,-0.0004581486,-89.53125,15.243751,39.75,watch_1
26354955334727,0.41156548,-0.2117648,9.798011,0.0,0.0006108648,-0.0004581486,-86.943756,4.4625,50.250004,watch_1
26354965334675,0.41156548,-0.2117648,9.798011,0.0,0.0006108648,-0.0004581486,-88.200005,10.387501,43.725002,watch_1
26354963337383,0.40677986,-0.21655045,9.793225,0.0,0.0006108648,-0.0004581486,-88.200005,10.387501,43.725002,watch_1
26354958374623,0.40677986,-0.21655045,9.793225,0.0,0.0006108648,-0.0004581486,-88.012505,10.51875,44.8875,watch_1
26354975334623,0.40677986,-0.21655045,9.793225,0.0,0.0006108648,-0.0004581486,-88.012505,10.51875,44.8875,watch_1
26354985334571,0.40677986,-0.21655045,9.793225,0.0,0.0006108648,-0.0004581486,-88.05,10.575001,42.5625,watch_1
26354982411394,0.41635114,-0.20219351,9.798011,0.0,0.0006108648,-0.0004581486,-88.05,10.575001,42.5625,watch_1
26354977448633,0.41635114,-0.20219351,9.798011,0.0,0.0006108648,-0.0004581486,-88.631256,11.71875,44.7,watch_1
26354995334519,0.41635114,-0.20219351,9.798011,0.0,0.0006108648,-0.0004581486,-88.631256,11.71875,44.7,watch_1
26355005334467,0.41635114,-0.20219351,9.798011,0.0,0.0006108648,-0.0004581486,-88.5,11.606251,44.287502,watch_1
26355001484415,0.41156548,-0.20697916,9.798011,0.0,0.0006108648,-0.0004581486,-88.5,11.606251,44.287502,watch_1
26354996521654,0.41156548,-0.20697916,9.798011,-0.0012217296,-0.0006108648,-0.0004581486,-88.5,11.606251,44.287502,watch_1
26355015334415,0.41156548,-0.20697916,9.798011,-0.0012217296,-0.0006108648,-0.0004581486,-88.6875,12.900001,42.393753,watch_1
26355025334363,0.41156548,-0.20697916,9.798011,-0.0012217296,-0.0006108648,-0.0004581486,-90.28125,12.3,41.11875,watch_1
26355020558425,0.41635114,-0.2117648,9.793225,-0.0012217296,-0.0006108648,-0.0004581486,-90.28125,12.3,41.11875,watch_1
26355015595665,0.41635114,-0.2117648,9.793225,-0.0012217296,-0.0006108648,-0.0004581486,-90.28125,12.3,41.11875,watch_1
26355035334310,0.41635114,-0.2117648,9.793225,-0.0012217296,-0.0006108648,-0.0004581486,-90.9,12.075001,40.631252,watch_1
26355045334258,0.41635114,-0.2117648,9.793225,-0.0012217296,-0.0006108648,-0.0004581486,-89.512505,12.225,42.375,watch_1
26355034668633,0.4211368,-0.21655045,9.788439,-0.0012217296,-0.0006108648,-0.0004581486,-88.912506,12.150001,43.3125,watch_1
26355039631394,0.4211368,-0.21655045,9.788439,-0.0012217296,-0.0006108648,-0.0004581486,-89.512505,12.225,42.375,watch_1
26355055334206,0.4211368,-0.21655045,9.788439,-0.0012217296,-0.0006108648,-0.0004581486,-88.912506,12.150001,43.3125,watch_1
