# Session ID: 20250816_124730
# Start Time: 1755341250518
# Device ID: watch_2
# Sample Count: 369
# Generated by Watch IMU Recorder
timestamp,accel_x,accel_y,accel_z,gyro_x,gyro_y,gyro_z,mag_x,mag_y,mag_z,watch_name
26331170025907,0.18424734,-0.17168503,9.765707,-0.0016798781,-0.0051923506,-0.0010690134,-631.3125,-237.07501,-606.3938,watch_2
26331189648876,0.18424734,-0.15732808,9.7704935,-0.0016798781,-0.0051923506,-0.0010690134,-631.3125,-237.07501,-606.3938,watch_2
26331209301897,0.19381863,-0.16689938,9.756136,-0.0016798781,-0.0051923506,-0.0010690134,-631.3125,-237.07501,-606.3938,watch_2
26331228924918,0.20338993,-0.17168503,9.756136,-0.0016798781,-0.0051923506,-0.0010690134,-631.3125,-237.07501,-606.3938,watch_2
26331252868251,0.19381863,-0.18125631,9.765707,-0.0016798781,-0.0051923506,-0.0010690134,-631.3125,-237.39375,-604.91254,watch_2
26331248578876,0.19381863,-0.18125631,9.765707,-0.0016798781,-0.0051923506,-0.0010690134,-631.3125,-237.39375,-604.91254,watch_2
26331243463772,0.19381863,-0.18125631,9.765707,0.00076358096,-0.0015271619,0.0001527162,-631.3125,-237.39375,-604.91254,watch_2
26331262868199,0.19381863,-0.18125631,9.765707,0.00076358096,-0.0015271619,0.0001527162,-629.025,-238.38751,-604.10626,watch_2
26331272868147,0.19381863,-0.18125631,9.765707,0.00076358096,-0.0015271619,0.0001527162,-629.025,-238.38751,-604.10626,watch_2
26331268200907,0.18903299,-0.17168503,9.746565,-0.0004581486,0.0021380268,0.0001527162,-629.025,-238.38751,-604.10626,watch_2
26331263085803,0.18903299,-0.17168503,9.746565,-0.0004581486,0.0021380268,0.0001527162,-629.025,-238.38751,-604.10626,watch_2
26331282868095,0.18903299,-0.17168503,9.746565,-0.0004581486,0.0021380268,0.0001527162,-629.41876,-238.03127,-603.03754,watch_2
26331292868043,0.18903299,-0.17168503,9.746565,-0.0004581486,0.0021380268,0.0001527162,-628.95,-239.23126,-603.73126,watch_2
26331287823876,0.18424734,-0.16689938,9.756136,0.00076358096,0.0021380268,0.0001527162,-628.95,-239.23126,-603.73126,watch_2
26331282708772,0.18424734,-0.16689938,9.756136,0.00076358096,0.0021380268,0.0001527162,-628.95,-239.23126,-603.73126,watch_2
26331302867990,0.18424734,-0.16689938,9.756136,0.00076358096,0.0021380268,0.0001527162,-628.05005,-237.69376,-604.21875,watch_2
26331312867938,0.18424734,-0.16689938,9.756136,0.00076358096,0.0021380268,0.0001527162,-628.96875,-239.21251,-604.4625,watch_2
26331307476897,0.18903299,-0.17647067,9.75135,0.00076358096,0.0021380268,0.0001527162,-628.96875,-239.21251,-604.4625,watch_2
26331302361793,0.18903299,-0.17647067,9.75135,-0.0004581486,-0.0015271619,0.0001527162,-628.96875,-239.21251,-604.4625,watch_2
26331322867886,0.18903299,-0.17647067,9.75135,-0.0004581486,-0.0015271619,0.0001527162,-629.1188,-239.40001,-603.30005,watch_2
26331332867834,0.18903299,-0.17647067,9.75135,-0.0004581486,-0.0015271619,0.0001527162,-630.46875,-239.43752,-603.30005,watch_2
26331327099918,0.19860429,-0.18604197,9.756136,0.00076358096,-0.0003054324,-0.0010690134,-630.46875,-239.43752,-603.30005,watch_2
26331321984813,0.19860429,-0.18604197,9.756136,0.00076358096,-0.0003054324,-0.0010690134,-630.46875,-239.43752,-603.30005,watch_2
26331342867782,0.19860429,-0.18604197,9.756136,0.00076358096,-0.0003054324,-0.0010690134,-629.66254,-238.57501,-605.625,watch_2
26331352867730,0.19860429,-0.18604197,9.756136,0.00076358096,-0.0003054324,-0.0010690134,-631.3313,-238.63126,-606.67505,watch_2
26331346753876,0.20338993,-0.18125631,9.746565,-0.0004581486,-0.0015271619,0.0001527162,-631.3313,-238.63126,-606.67505,watch_2
26331341638772,0.20338993,-0.18125631,9.746565,-0.0004581486,-0.0015271619,0.0001527162,-631.3313,-238.63126,-606.67505,watch_2
26331362867678,0.20338993,-0.18125631,9.746565,-0.0004581486,-0.0015271619,0.0001527162,-632.025,-238.33125,-605.04376,watch_2
26331372867626,0.20338993,-0.18125631,9.746565,-0.0004581486,-0.0015271619,0.0001527162,-631.65,-237.39375,-606.3938,watch_2
26331366375907,0.19381863,-0.16689938,9.756136,-0.0004581486,-0.0015271619,0.0001527162,-631.65,-237.39375,-606.3938,watch_2
26331361260803,0.19381863,-0.16689938,9.756136,0.00076358096,0.0009162972,0.0001527162,-632.3063,-238.05,-606.5625,watch_2
26331382867574,0.19381863,-0.16689938,9.756136,0.00076358096,0.0009162972,0.0001527162,-632.3063,-238.05,-606.5625,watch_2
26331392867522,0.19381863,-0.16689938,9.756136,0.00076358096,0.0009162972,0.0001527162,-631.95,-237.26251,-607.61255,watch_2
26331385998876,0.18424734,-0.16689938,9.756136,-0.0004581486,0.0021380268,-0.0010690134,-631.95,-237.26251,-607.61255,watch_2
26331380883772,0.18424734,-0.16689938,9.756136,-0.0004581486,0.0021380268,-0.0010690134,-631.95,-237.26251,-607.61255,watch_2
26331402867470,0.18424734,-0.16689938,9.756136,-0.0004581486,0.0021380268,-0.0010690134,-632.71875,-238.78127,-607.5563,watch_2
26331412867418,0.18424734,-0.16689938,9.756136,-0.0004581486,0.0021380268,-0.0010690134,-632.28754,-237.6,-607.61255,watch_2
26331405651897,0.18424734,-0.18125631,9.7609215,0.00076358096,-0.0015271619,0.0001527162,-632.28754,-237.6,-607.61255,watch_2
26331400536793,0.18424734,-0.18125631,9.7609215,0.00076358096,-0.0015271619,0.0001527162,-632.28754,-237.6,-607.61255,watch_2
26331422867365,0.18424734,-0.18125631,9.7609215,0.00076358096,-0.0015271619,0.0001527162,-632.28754,-237.6,-607.61255,watch_2
26331432867313,0.18424734,-0.18125631,9.7609215,0.00076358096,-0.0015271619,0.0001527162,-632.3813,-237.18752,-607.23755,watch_2
26331420159813,0.18424734,-0.18125631,9.7609215,-0.0004581486,0.0009162972,0.0001527162,-632.3813,-237.18752,-607.23755,watch_2
26331425274918,0.18903299,-0.18125631,9.756136,-0.0004581486,0.0009162972,0.0001527162,-632.3813,-237.18752,-607.23755,watch_2
26331442867261,0.18903299,-0.18125631,9.756136,-0.0004581486,0.0009162972,0.0001527162,-633.22504,-236.41876,-608.5688,watch_2
26331452867209,0.18903299,-0.18125631,9.756136,-0.0004581486,0.0009162972,0.0001527162,-634.125,-236.71877,-607.03125,watch_2
26331444928876,0.18424734,-0.17647067,9.756136,0.00076358096,-0.0003054324,0.0001527162,-634.125,-236.71877,-607.03125,watch_2
26331439813772,0.18424734,-0.17647067,9.756136,0.00076358096,-0.0003054324,0.0001527162,-634.125,-236.71877,-607.03125,watch_2
26331462867157,0.18424734,-0.17647067,9.756136,0.00076358096,-0.0003054324,0.0001527162,-632.4375,-239.04376,-606.7688,watch_2
26331472867105,0.18424734,-0.17647067,9.756136,0.00076358096,-0.0003054324,0.0001527162,-631.48126,-236.90627,-608.325,watch_2
26331464550907,0.18424734,-0.17168503,9.75135,0.00076358096,-0.0003054324,0.0001527162,-631.48126,-236.90627,-608.325,watch_2
26331459435803,0.18424734,-0.17168503,9.75135,0.00076358096,-0.0003054324,0.0001527162,-631.48126,-236.90627,-608.325,watch_2
26331482867053,0.18424734,-0.17168503,9.75135,0.00076358096,-0.0003054324,0.0001527162,-632.1938,-238.1625,-607.10626,watch_2
26331492867001,0.19860429,-0.18125631,9.746565,0.00076358096,-0.0003054324,0.0001527162,-633.16876,-237.58125,-606.84375,watch_2
26331484173876,0.19860429,-0.18125631,9.746565,0.00076358096,-0.0003054324,0.0001527162,-633.16876,-237.58125,-606.84375,watch_2
26331479058772,0.19860429,-0.18125631,9.746565,0.00076358096,0.0009162972,-0.0010690134,-633.16876,-237.58125,-606.84375,watch_2
26331502866949,0.19860429,-0.18125631,9.746565,0.00076358096,0.0009162972,-0.0010690134,-632.0625,-237.16876,-606.03754,watch_2
26331503827886,0.18903299,-0.17647067,9.756136,0.00076358096,0.0009162972,-0.0010690134,-631.48126,-237.225,-607.275,watch_2
26331512866897,0.18903299,-0.17647067,9.756136,0.00076358096,0.0009162972,-0.0010690134,-631.48126,-237.225,-607.275,watch_2
26331498712782,0.18903299,-0.17647067,9.756136,0.00076358096,0.0009162972,0.0001527162,-631.48126,-237.225,-607.275,watch_2
26331522866845,0.18903299,-0.17647067,9.756136,0.00076358096,0.0009162972,0.0001527162,-632.3813,-237.20625,-606.78754,watch_2
26331532866793,0.18903299,-0.17647067,9.756136,0.00076358096,0.0009162972,0.0001527162,-632.60626,-238.08751,-606.30005,watch_2
26331518334813,0.17467605,-0.16689938,9.75135,-0.0004581486,0.0009162972,-0.0010690134,-632.60626,-238.08751,-606.30005,watch_2
26331523449918,0.17467605,-0.16689938,9.75135,-0.0004581486,0.0009162972,-0.0010690134,-632.60626,-238.08751,-606.30005,watch_2
26331542866740,0.17467605,-0.16689938,9.75135,-0.0004581486,0.0009162972,-0.0010690134,-633.75,-237.20625,-608.25,watch_2
26331552866688,0.19381863,-0.17647067,9.741779,-0.0004581486,0.0009162972,-0.0010690134,-632.41876,-238.725,-608.25,watch_2
26331543103876,0.19381863,-0.17647067,9.741779,-0.0004581486,-0.0015271619,-0.0010690134,-632.41876,-238.725,-608.25,watch_2
26331537988772,0.19381863,-0.17647067,9.741779,-0.0004581486,-0.0015271619,-0.0010690134,-632.41876,-238.725,-608.25,watch_2
26331562866636,0.19381863,-0.17647067,9.741779,-0.0004581486,-0.0015271619,-0.0010690134,-633.4313,-238.12502,-609.4313,watch_2
26331572866584,0.19381863,-0.17647067,9.741779,-0.0004581486,-0.0015271619,-0.0010690134,-633.84375,-238.21877,-607.72504,watch_2
26331562725907,0.20817557,-0.17168503,9.75135,-0.0004581486,-0.0015271619,-0.0010690134,-633.84375,-238.21877,-607.72504,watch_2
26331557610803,0.20817557,-0.17168503,9.75135,0.00076358096,-0.0015271619,0.0001527162,-633.84375,-238.21877,-607.72504,watch_2
26331582866532,0.20817557,-0.17168503,9.75135,0.00076358096,-0.0015271619,0.0001527162,-631.6313,-237.07501,-607.7438,watch_2
26331582379918,0.18424734,-0.18125631,9.75135,0.00076358096,-0.0015271619,0.0001527162,-631.6313,-237.07501,-607.7438,watch_2
26331577264813,0.18424734,-0.18125631,9.75135,0.00076358096,0.0009162972,0.0001527162,-631.6313,-237.07501,-607.7438,watch_2
26331592866480,0.18424734,-0.18125631,9.75135,0.00076358096,0.0009162972,0.0001527162,-632.15625,-236.60626,-606.97504,watch_2
26331602866428,0.18424734,-0.18125631,9.75135,0.00076358096,0.0009162972,0.0001527162,-631.875,-236.55,-607.3875,watch_2
26331602002886,0.19381863,-0.17168503,9.756136,0.00076358096,0.0009162972,0.0001527162,-631.875,-236.55,-607.3875,watch_2
26331596887782,0.19381863,-0.17168503,9.756136,0.00076358096,0.0009162972,0.0001527162,-631.875,-236.55,-607.3875,watch_2
26331612866376,0.19381863,-0.17168503,9.756136,0.00076358096,0.0009162972,0.0001527162,-632.85004,-237.24376,-607.575,watch_2
26331622866324,0.19381863,-0.17168503,9.756136,0.00076358096,0.0009162972,0.0001527162,-633.22504,-237.99376,-607.53754,watch_2
26331616509813,0.19381863,-0.17647067,9.756136,-0.0004581486,0.0021380268,0.0001527162,-633.22504,-237.99376,-607.53754,watch_2
26331621624918,0.19381863,-0.17647067,9.756136,-0.0004581486,0.0021380268,0.0001527162,-632.8875,-237.52501,-608.2688,watch_2
26331632866272,0.19381863,-0.17647067,9.756136,-0.0004581486,0.0021380268,0.0001527162,-632.8875,-237.52501,-608.2688,watch_2
26331642866220,0.19381863,-0.17647067,9.756136,-0.0004581486,0.0021380268,0.0001527162,-632.15625,-236.60626,-606.97504,watch_2
26331641278876,0.19381863,-0.17647067,9.741779,-0.0004581486,0.0021380268,0.0001527162,-632.15625,-236.60626,-606.97504,watch_2
26331636163772,0.19381863,-0.17647067,9.741779,-0.0004581486,-0.0003054324,0.0001527162,-632.15625,-236.60626,-606.97504,watch_2
26331652866168,0.19381863,-0.17647067,9.741779,-0.0004581486,-0.0003054324,0.0001527162,-631.35004,-238.6125,-607.125,watch_2
26331662866115,0.19381863,-0.17647067,9.741779,-0.0004581486,-0.0003054324,0.0001527162,-633.1875,-237.56252,-607.875,watch_2
26331660901897,0.18903299,-0.17647067,9.741779,-0.0004581486,-0.0003054324,0.0001527162,-633.1875,-237.56252,-607.875,watch_2
26331655786793,0.18903299,-0.17647067,9.741779,-0.0004581486,-0.0003054324,0.0001527162,-633.1875,-237.56252,-607.875,watch_2
26331672866063,0.18903299,-0.17647067,9.741779,-0.0004581486,-0.0003054324,0.0001527162,-633.6188,-237.31876,-608.3813,watch_2
26331682866011,0.18903299,-0.17647067,9.741779,-0.0004581486,-0.0003054324,0.0001527162,-632.79376,-236.81252,-607.61255,watch_2
26331680554918,0.18424734,-0.17647067,9.746565,-0.0004581486,-0.0003054324,0.0001527162,-632.79376,-236.81252,-607.61255,watch_2
26331675439813,0.18424734,-0.17647067,9.746565,0.00076358096,-0.0003054324,0.0001527162,-632.79376,-236.81252,-607.61255,watch_2
26331692865959,0.18424734,-0.17647067,9.746565,0.00076358096,-0.0003054324,0.0001527162,-632.34375,-236.75626,-607.85626,watch_2
26331702865907,0.18424734,-0.17647067,9.746565,0.00076358096,-0.0003054324,0.0001527162,-631.7625,-239.64375,-607.80005,watch_2
26331700177886,0.18424734,-0.17168503,9.741779,0.00076358096,-0.0003054324,0.0001527162,-631.7625,-239.64375,-607.80005,watch_2
26331695062782,0.18424734,-0.17168503,9.741779,0.00076358096,0.0009162972,0.0001527162,-631.7625,-239.64375,-607.80005,watch_2
26331712865855,0.18424734,-0.17168503,9.741779,0.00076358096,0.0009162972,0.0001527162,-633.075,-236.86876,-606.6188,watch_2
26331722865803,0.18424734,-0.17168503,9.741779,0.00076358096,0.0009162972,0.0001527162,-632.90625,-236.38126,-608.53125,watch_2
26331719799918,0.19381863,-0.16689938,9.746565,0.00076358096,0.0009162972,0.0001527162,-632.90625,-236.38126,-608.53125,watch_2
26331714684813,0.19381863,-0.16689938,9.746565,0.00076358096,0.0009162972,0.0001527162,-632.90625,-236.38126,-608.53125,watch_2
26331732865751,0.19381863,-0.16689938,9.746565,0.00076358096,0.0009162972,0.0001527162,-633.84375,-236.96251,-606.9938,watch_2
26331742865699,0.19381863,-0.16689938,9.746565,0.00076358096,0.0009162972,0.0001527162,-632.8688,-237.225,-609.0188,watch_2
26331739453876,0.18903299,-0.17647067,9.741779,-0.0004581486,-0.0003054324,-0.0010690134,-632.8688,-237.225,-609.0188,watch_2
26331734338772,0.18903299,-0.17647067,9.741779,-0.0004581486,-0.0003054324,-0.0010690134,-632.8688,-237.225,-609.0188,watch_2
26331752865647,0.18903299,-0.17647067,9.741779,-0.0004581486,-0.0003054324,-0.0010690134,-631.8375,-236.2875,-606.97504,watch_2
26331762865595,0.18903299,-0.17647067,9.741779,-0.0004581486,-0.0003054324,-0.0010690134,-634.0875,-237.52501,-609.0,watch_2
26331759076897,0.18424734,-0.17647067,9.741779,0.00076358096,-0.0003054324,-0.0010690134,-633.8063,-237.7875,-608.2125,watch_2
26331772865543,0.18424734,-0.17647067,9.741779,0.00076358096,-0.0003054324,-0.0010690134,-633.8063,-237.7875,-608.2125,watch_2
26331753961793,0.18424734,-0.17647067,9.741779,0.00076358096,-0.0003054324,-0.0010690134,-633.8063,-237.7875,-608.2125,watch_2
26331782865490,0.18424734,-0.17647067,9.741779,0.00076358096,-0.0003054324,-0.0010690134,-631.5,-237.18752,-608.28754,watch_2
26331778729918,0.19381863,-0.17647067,9.746565,0.00076358096,-0.0003054324,-0.0010690134,-631.5,-237.18752,-608.28754,watch_2
26331773614813,0.19381863,-0.17647067,9.746565,-0.0004581486,-0.0003054324,0.0001527162,-631.5,-237.18752,-608.28754,watch_2
26331792865438,0.19381863,-0.17647067,9.746565,-0.0004581486,-0.0003054324,0.0001527162,-632.8313,-237.24376,-607.275,watch_2
26331802865386,0.19381863,-0.17647067,9.746565,-0.0004581486,-0.0003054324,0.0001527162,-632.8313,-237.24376,-607.275,watch_2
26331798352886,0.1794617,-0.17168503,9.75135,-0.0004581486,-0.0003054324,0.0001527162,-632.8313,-237.24376,-607.275,watch_2
26331812865334,0.1794617,-0.17168503,9.75135,0.00076358096,-0.0003054324,-0.0010690134,-633.75,-237.20625,-608.55005,watch_2
26331793237782,0.1794617,-0.17168503,9.75135,0.00076358096,-0.0003054324,-0.0010690134,-633.75,-237.20625,-608.55005,watch_2
26331822865282,0.1794617,-0.17168503,9.75135,0.00076358096,-0.0003054324,-0.0010690134,-633.35626,-234.88126,-608.5875,watch_2
26331817974918,0.1794617,-0.17168503,9.75135,0.00076358096,0.0021380268,0.0001527162,-633.0,-235.50002,-610.5188,watch_2
26331832865230,0.1794617,-0.17168503,9.75135,0.00076358096,0.0021380268,0.0001527162,-633.0,-235.50002,-610.5188,watch_2
26331812859813,0.1794617,-0.17168503,9.75135,0.00076358096,0.0021380268,0.0001527162,-633.0,-235.50002,-610.5188,watch_2
26331842865178,0.1794617,-0.17168503,9.75135,0.00076358096,0.0021380268,0.0001527162,-634.23755,-234.8625,-608.8313,watch_2
26331832513772,0.1794617,-0.16689938,9.75135,-0.0004581486,0.0009162972,0.0001527162,-634.23755,-234.8625,-608.8313,watch_2
26331837628876,0.1794617,-0.16689938,9.75135,-0.0004581486,0.0009162972,0.0001527162,-634.23755,-234.8625,-608.8313,watch_2
26331852865126,0.1794617,-0.16689938,9.75135,-0.0004581486,0.0009162972,0.0001527162,-634.05005,-235.66876,-609.3188,watch_2
26331862865074,0.1794617,-0.16689938,9.75135,-0.0004581486,0.0009162972,0.0001527162,-634.275,-237.65627,-610.16254,watch_2
26331857251897,0.20338993,-0.17168503,9.75135,-0.0004581486,0.0009162972,0.0001527162,-634.275,-237.65627,-610.16254,watch_2
26331852136793,0.20338993,-0.17168503,9.75135,-0.0004581486,-0.0015271619,0.0001527162,-634.275,-237.65627,-610.16254,watch_2
26331872865022,0.20338993,-0.17168503,9.75135,-0.0004581486,-0.0015271619,0.0001527162,-633.30005,-237.13126,-609.22504,watch_2
26331882864970,0.20338993,-0.17168503,9.75135,-0.0004581486,-0.0015271619,0.0001527162,-632.98126,-235.51875,-609.5063,watch_2
26331876904918,0.19381863,-0.18125631,9.746565,-0.0004581486,-0.0015271619,0.0001527162,-632.98126,-235.51875,-609.5063,watch_2
26331871789813,0.19381863,-0.18125631,9.746565,0.00076358096,-0.0015271619,0.0001527162,-632.98126,-235.51875,-609.5063,watch_2
26331892864918,0.19381863,-0.18125631,9.746565,0.00076358096,-0.0015271619,0.0001527162,-632.34375,-235.33125,-608.28754,watch_2
26331902864865,0.19381863,-0.18125631,9.746565,0.00076358096,-0.0015271619,0.0001527162,-633.67505,-236.475,-609.0563,watch_2
26331891412782,0.19381863,-0.16689938,9.756136,0.00076358096,0.0009162972,-0.0010690134,-633.67505,-236.475,-609.0563,watch_2
26331896527886,0.19381863,-0.16689938,9.756136,0.00076358096,0.0009162972,-0.0010690134,-633.67505,-236.475,-609.0563,watch_2
26331912864813,0.19381863,-0.16689938,9.756136,0.00076358096,0.0009162972,-0.0010690134,-633.375,-237.71251,-608.8875,watch_2
26331922864761,0.19381863,-0.16689938,9.756136,0.00076358096,0.0009162972,-0.0010690134,-633.5813,-236.86876,-609.4313,watch_2
26331916150907,0.18903299,-0.17647067,9.75135,0.00076358096,0.0009162972,-0.0010690134,-633.5813,-236.86876,-609.4313,watch_2
26331911035803,0.18903299,-0.17647067,9.75135,0.00076358096,0.0009162972,0.0001527162,-633.5813,-236.86876,-609.4313,watch_2
26331932864709,0.18903299,-0.17647067,9.75135,0.00076358096,0.0009162972,0.0001527162,-634.7063,-237.43126,-610.23755,watch_2
26331942864657,0.18903299,-0.17647067,9.75135,0.00076358096,0.0009162972,0.0001527162,-634.05005,-237.24376,-608.28754,watch_2
26331930688772,0.18903299,-0.17647067,9.736994,-0.0004581486,0.0009162972,-0.0010690134,-634.05005,-237.24376,-608.28754,watch_2
26331935803876,0.18903299,-0.17647067,9.736994,-0.0004581486,0.0009162972,-0.0010690134,-634.05005,-237.24376,-608.28754,watch_2
26331952864605,0.18903299,-0.17647067,9.736994,-0.0004581486,0.0009162972,-0.0010690134,-633.5625,-236.88751,-608.7,watch_2
26331962864553,0.18903299,-0.17647067,9.736994,-0.0004581486,0.0009162972,-0.0010690134,-634.0688,-235.95001,-609.28125,watch_2
26331950311793,0.18424734,-0.17647067,9.741779,-0.0004581486,-0.0003054324,0.0001527162,-634.0688,-235.95001,-609.28125,watch_2
26331955426897,0.18424734,-0.17647067,9.741779,-0.0004581486,-0.0003054324,0.0001527162,-634.0688,-235.95001,-609.28125,watch_2
26331972864501,0.18424734,-0.17647067,9.741779,-0.0004581486,-0.0003054324,0.0001527162,-632.8125,-236.79376,-609.0563,watch_2
26331982864449,0.18424734,-0.17647067,9.741779,-0.0004581486,-0.0003054324,0.0001527162,-633.8063,-237.45001,-610.275,watch_2
26331975079918,0.19860429,-0.17168503,9.736994,-0.0004581486,-0.0003054324,0.0001527162,-633.8063,-237.45001,-610.275,watch_2
26331969964813,0.19860429,-0.17168503,9.736994,-0.0004581486,-0.0003054324,0.0001527162,-633.8063,-237.45001,-610.275,watch_2
26331992864397,0.19860429,-0.17168503,9.736994,-0.0004581486,-0.0003054324,0.0001527162,-634.05005,-235.66876,-609.3188,watch_2
26332002864345,0.20338993,-0.18604197,9.736994,-0.0004581486,-0.0003054324,0.0001527162,-631.2,-234.46877,-608.23126,watch_2
26331994702886,0.20338993,-0.18604197,9.736994,-0.0004581486,-0.0003054324,0.0001527162,-631.2,-234.46877,-608.23126,watch_2
26331989587782,0.20338993,-0.18604197,9.736994,0.00076358096,0.0009162972,0.0001527162,-631.2,-234.46877,-608.23126,watch_2
26332012864293,0.20338993,-0.18604197,9.736994,0.00076358096,0.0009162972,0.0001527162,-634.0875,-235.93126,-610.0125,watch_2
26332022864240,0.20338993,-0.18604197,9.736994,0.00076358096,0.0009162972,0.0001527162,-632.9625,-236.64375,-609.97504,watch_2
26332009210803,0.20338993,-0.18604197,9.736994,0.00076358096,0.0009162972,0.0001527162,-632.9625,-236.64375,-609.97504,watch_2
26332014325907,0.19381863,-0.16211374,9.746565,0.00076358096,0.0009162972,0.0001527162,-632.9625,-236.64375,-609.97504,watch_2
26332032864188,0.19381863,-0.16211374,9.746565,0.00076358096,0.0009162972,0.0001527162,-633.6938,-236.79376,-607.5563,watch_2
26332042864136,0.19381863,-0.16211374,9.746565,0.00076358096,0.0009162972,0.0001527162,-634.35004,-235.5375,-610.5188,watch_2
26332033978876,0.1794617,-0.17168503,9.756136,0.00076358096,0.0009162972,0.0001527162,-634.35004,-235.5375,-610.5188,watch_2
26332028863772,0.1794617,-0.17168503,9.756136,0.00076358096,0.0009162972,0.0001527162,-634.35004,-235.5375,-610.5188,watch_2
26332052864084,0.1794617,-0.17168503,9.756136,0.00076358096,0.0009162972,0.0001527162,-633.3938,-238.1625,-607.3875,watch_2
26332062864032,0.1794617,-0.17168503,9.756136,0.00076358096,0.0009162972,0.0001527162,-633.30005,-237.15001,-608.4938,watch_2
26332053601897,0.18903299,-0.17168503,9.75135,-0.0004581486,0.0009162972,0.0001527162,-633.30005,-237.15001,-608.4938,watch_2
26332048486793,0.18903299,-0.17168503,9.75135,-0.0004581486,0.0009162972,0.0001527162,-633.30005,-237.15001,-608.4938,watch_2
26332072863980,0.18903299,-0.17168503,9.75135,-0.0004581486,0.0009162972,0.0001527162,-631.9313,-235.68752,-608.34375,watch_2
26332073254918,0.18424734,-0.17168503,9.746565,-0.0004581486,-0.0015271619,0.0001527162,-633.35626,-237.39375,-609.9375,watch_2
26332082863928,0.18424734,-0.17168503,9.746565,-0.0004581486,-0.0015271619,0.0001527162,-633.35626,-237.39375,-609.9375,watch_2
26332068139813,0.18424734,-0.17168503,9.746565,-0.0004581486,-0.0015271619,0.0001527162,-633.35626,-237.39375,-609.9375,watch_2
26332092863876,0.18424734,-0.17168503,9.746565,-0.0004581486,-0.0015271619,0.0001527162,-634.1438,-236.68126,-608.4938,watch_2
26332102863824,0.18424734,-0.17168503,9.746565,-0.0004581486,-0.0015271619,0.0001527162,-634.1438,-236.68126,-608.4938,watch_2
26332092877886,0.18903299,-0.18125631,9.746565,-0.0004581486,-0.0015271619,0.0001527162,-634.1438,-236.68126,-608.4938,watch_2
26332087762782,0.18903299,-0.18125631,9.746565,-0.0004581486,0.0009162972,-0.0010690134,-634.1438,-236.68126,-608.4938,watch_2
26332112863772,0.18903299,-0.18125631,9.746565,-0.0004581486,0.0009162972,-0.0010690134,-633.97504,-236.51251,-608.6438,watch_2
26332107415803,0.19381863,-0.16689938,9.741779,0.00076358096,0.0009162972,-0.0010690134,-634.61255,-236.71877,-609.5625,watch_2
26332122863720,0.19381863,-0.16689938,9.741779,0.00076358096,0.0009162972,-0.0010690134,-634.61255,-236.71877,-609.5625,watch_2
26332112530907,0.19381863,-0.16689938,9.741779,0.00076358096,0.0009162972,-0.0010690134,-634.61255,-236.71877,-609.5625,watch_2
26332132863668,0.19381863,-0.16689938,9.741779,0.00076358096,0.0009162972,-0.0010690134,-633.60004,-237.33751,-607.9313,watch_2
26332127038772,0.19860429,-0.15732808,9.746565,0.00076358096,0.0009162972,0.0001527162,-633.60004,-237.33751,-607.9313,watch_2
26332132153876,0.19860429,-0.15732808,9.746565,0.00076358096,0.0009162972,0.0001527162,-633.60004,-237.33751,-607.9313,watch_2
26332142863615,0.19860429,-0.15732808,9.746565,0.00076358096,0.0009162972,0.0001527162,-632.4375,-237.45001,-608.5125,watch_2
26332152863563,0.19860429,-0.15732808,9.746565,0.00076358096,0.0009162972,0.0001527162,-633.16876,-237.26251,-609.0563,watch_2
26332151776897,0.18424734,-0.16689938,9.746565,-0.0004581486,-0.0003054324,0.0001527162,-633.16876,-237.26251,-609.0563,watch_2
26332146661793,0.18424734,-0.16689938,9.746565,-0.0004581486,-0.0003054324,0.0001527162,-633.16876,-237.26251,-609.0563,watch_2
26332162863511,0.18424734,-0.16689938,9.746565,-0.0004581486,-0.0003054324,0.0001527162,-634.72504,-236.15627,-610.5,watch_2
26332172863459,0.18424734,-0.16689938,9.746565,-0.0004581486,-0.0003054324,0.0001527162,-634.98755,-237.4875,-609.2438,watch_2
26332171429918,0.18903299,-0.17647067,9.732208,-0.0004581486,-0.0027488915,0.0001527162,-634.98755,-237.4875,-609.2438,watch_2
26332166314813,0.18903299,-0.17647067,9.732208,-0.0004581486,-0.0027488915,0.0001527162,-634.61255,-236.7375,-609.28125,watch_2
26332182863407,0.18903299,-0.17647067,9.732208,-0.0004581486,-0.0027488915,0.0001527162,-634.61255,-236.7375,-609.28125,watch_2
26332192863355,0.18903299,-0.17647067,9.732208,-0.0004581486,-0.0027488915,0.0001527162,-633.65625,-237.6,-609.075,watch_2
26332191052886,0.17467605,-0.17647067,9.741779,-0.0004581486,-0.0027488915,0.0001527162,-633.65625,-237.6,-609.075,watch_2
26332185937782,0.17467605,-0.17647067,9.741779,0.00076358096,0.0021380268,0.0001527162,-633.1875,-235.9875,-609.03754,watch_2
26332202863303,0.17467605,-0.17647067,9.741779,0.00076358096,0.0021380268,0.0001527162,-633.1875,-235.9875,-609.03754,watch_2
26332212863251,0.17467605,-0.17647067,9.741779,0.00076358096,0.0021380268,0.0001527162,-633.6938,-236.77501,-607.85626,watch_2
26332205590803,0.17467605,-0.17647067,9.741779,0.00076358096,0.0021380268,0.0001527162,-633.6938,-236.77501,-607.85626,watch_2
26332222863199,0.19860429,-0.16689938,9.741779,0.00076358096,0.0021380268,0.0001527162,-630.6938,-238.25626,-606.48755,watch_2
26332210705907,0.19860429,-0.16689938,9.741779,0.00076358096,0.0021380268,0.0001527162,-630.6938,-238.25626,-606.48755,watch_2
26332232863147,0.19860429,-0.16689938,9.741779,0.00076358096,0.0021380268,0.0001527162,-629.8688,-239.02501,-605.8875,watch_2
26332230328876,0.19381863,-0.17168503,9.75135,0.00076358096,-0.0003054324,0.0001527162,-630.0563,-239.32501,-606.0188,watch_2
26332225213772,0.19381863,-0.17168503,9.75135,0.00076358096,-0.0003054324,0.0001527162,-630.0563,-239.32501,-606.0188,watch_2
26332242863095,0.19381863,-0.17168503,9.75135,0.00076358096,-0.0003054324,0.0001527162,-630.0563,-239.32501,-606.0188,watch_2
26332252863043,0.19381863,-0.17168503,9.75135,0.00076358096,-0.0003054324,0.0001527162,-630.30005,-237.675,-605.1938,watch_2
26332249951897,0.18424734,-0.17168503,9.741779,-0.0004581486,-0.0003054324,0.0001527162,-630.30005,-237.675,-605.1938,watch_2
26332244836793,0.18424734,-0.17168503,9.741779,-0.0004581486,-0.0003054324,0.0001527162,-630.30005,-237.675,-605.1938,watch_2
26332262862990,0.18424734,-0.17168503,9.741779,-0.0004581486,-0.0003054324,0.0001527162,-630.35626,-238.25626,-604.42505,watch_2
26332272862938,0.18424734,-0.17168503,9.741779,-0.0004581486,-0.0003054324,0.0001527162,-632.4,-238.76251,-606.48755,watch_2
26332269604918,0.19860429,-0.18125631,9.746565,-0.0004581486,-0.0003054324,0.0001527162,-632.4,-238.76251,-606.48755,watch_2
26332264489813,0.19860429,-0.18125631,9.746565,-0.0004581486,-0.0015271619,0.0001527162,-633.46875,-238.89375,-607.3313,watch_2
26332282862886,0.19860429,-0.18125631,9.746565,-0.0004581486,-0.0015271619,0.0001527162,-633.46875,-238.89375,-607.3313,watch_2
26332292862834,0.19860429,-0.18125631,9.746565,-0.0004581486,-0.0015271619,0.0001527162,-630.5625,-236.96251,-607.05005,watch_2
26332289227886,0.19860429,-0.18125631,9.741779,-0.0004581486,0.0009162972,0.0001527162,-630.5625,-236.96251,-607.05005,watch_2
26332284112782,0.19860429,-0.18125631,9.741779,-0.0004581486,0.0009162972,0.0001527162,-630.5625,-236.96251,-607.05005,watch_2
26332302862782,0.19860429,-0.18125631,9.741779,-0.0004581486,0.0009162972,0.0001527162,-632.0813,-238.74376,-605.4375,watch_2
26332312862730,0.19860429,-0.18125631,9.741779,-0.0004581486,0.0009162972,0.0001527162,-633.09375,-238.12502,-607.65,watch_2
26332308880907,0.1698904,-0.16689938,9.746565,-0.0004581486,0.0021380268,0.0001527162,-633.09375,-238.12502,-607.65,watch_2
26332303765803,0.1698904,-0.16689938,9.746565,-0.0004581486,0.0021380268,0.0001527162,-631.7063,-237.80626,-607.0875,watch_2
26332322862678,0.1698904,-0.16689938,9.746565,-0.0004581486,0.0021380268,0.0001527162,-631.7063,-237.80626,-607.0875,watch_2
26332332862626,0.1698904,-0.16689938,9.746565,-0.0004581486,0.0021380268,0.0001527162,-632.4375,-239.04376,-606.7688,watch_2
26332328503876,0.18903299,-0.17168503,9.746565,-0.0004581486,0.0021380268,0.0001527162,-632.4375,-239.04376,-606.7688,watch_2
26332323388772,0.18903299,-0.17168503,9.746565,0.00076358096,-0.0003054324,0.0001527162,-632.4375,-239.04376,-606.7688,watch_2
26332342862574,0.18903299,-0.17168503,9.746565,0.00076358096,-0.0003054324,0.0001527162,-630.97504,-239.90627,-604.1813,watch_2
26332352862522,0.18903299,-0.17168503,9.746565,0.00076358096,-0.0003054324,0.0001527162,-632.47504,-238.21877,-606.41254,watch_2
26332348126897,0.18903299,-0.17168503,9.741779,-0.0004581486,-0.0015271619,0.0001527162,-632.47504,-238.21877,-606.41254,watch_2
26332362862470,0.18903299,-0.17168503,9.741779,-0.0004581486,-0.0015271619,0.0001527162,-633.22504,-238.01251,-607.23755,watch_2
26332343011793,0.18903299,-0.17168503,9.741779,-0.0004581486,-0.0015271619,0.0001527162,-633.22504,-238.01251,-607.23755,watch_2
26332372862418,0.18903299,-0.17168503,9.741779,-0.0004581486,-0.0015271619,0.0001527162,-632.79376,-236.81252,-607.61255,watch_2
26332367779918,0.19860429,-0.17647067,9.741779,-0.0004581486,-0.0003054324,0.0001527162,-632.79376,-236.81252,-607.61255,watch_2
26332362664813,0.19860429,-0.17647067,9.741779,-0.0004581486,-0.0003054324,0.0001527162,-632.79376,-236.81252,-607.61255,watch_2
26332382862365,0.19860429,-0.17647067,9.741779,-0.0004581486,-0.0003054324,0.0001527162,-631.42505,-237.75002,-608.3813,watch_2
26332392862313,0.19860429,-0.17647067,9.741779,-0.0004581486,-0.0003054324,0.0001527162,-632.36255,-235.63126,-607.8188,watch_2
26332387402886,0.18903299,-0.17647067,9.736994,0.00076358096,0.0009162972,0.0001527162,-632.36255,-235.63126,-607.8188,watch_2
26332382287782,0.18903299,-0.17647067,9.736994,0.00076358096,0.0009162972,0.0001527162,-632.36255,-235.63126,-607.8188,watch_2
26332402862261,0.18903299,-0.17647067,9.736994,0.00076358096,0.0009162972,0.0001527162,-632.4,-237.18752,-607.8188,watch_2
26332412862209,0.18903299,-0.17647067,9.736994,0.00076358096,0.0009162972,0.0001527162,-632.36255,-237.20625,-606.5063,watch_2
26332407055907,0.18903299,-0.18125631,9.736994,-0.0004581486,0.0021380268,0.0001527162,-632.36255,-237.20625,-606.5063,watch_2
26332401940803,0.18903299,-0.18125631,9.736994,-0.0004581486,0.0021380268,0.0001527162,-632.36255,-237.20625,-606.5063,watch_2
26332422862157,0.18903299,-0.18125631,9.736994,-0.0004581486,0.0021380268,0.0001527162,-632.98126,-237.13126,-607.4438,watch_2
26332432862105,0.18903299,-0.18125631,9.736994,-0.0004581486,0.0021380268,0.0001527162,-630.3375,-239.55,-603.41254,watch_2
26332426678876,0.18903299,-0.17168503,9.7609215,0.00076358096,0.0009162972,0.0001527162,-630.3375,-239.55,-603.41254,watch_2
26332421563772,0.18903299,-0.17168503,9.7609215,0.00076358096,0.0009162972,0.0001527162,-630.3375,-239.55,-603.41254,watch_2
26332442862053,0.18903299,-0.17168503,9.7609215,0.00076358096,0.0009162972,0.0001527162,-631.1438,-235.33125,-607.5563,watch_2
26332452862001,0.18903299,-0.17168503,9.7609215,0.00076358096,0.0009162972,0.0001527162,-630.3188,-236.40001,-605.47504,watch_2
26332446301897,0.1698904,-0.16689938,9.741779,-0.0004581486,-0.0003054324,0.0001527162,-630.3188,-236.40001,-605.47504,watch_2
26332441186793,0.1698904,-0.16689938,9.741779,-0.0004581486,-0.0003054324,0.0001527162,-630.3188,-236.40001,-605.47504,watch_2
26332462861949,0.1698904,-0.16689938,9.741779,-0.0004581486,-0.0003054324,0.0001527162,-632.3063,-237.58125,-608.34375,watch_2
26332472861897,0.1698904,-0.16689938,9.741779,-0.0004581486,-0.0003054324,0.0001527162,-633.6938,-238.05,-607.875,watch_2
26332465954918,0.19381863,-0.17647067,9.746565,-0.0004581486,-0.0003054324,0.0001527162,-633.6938,-238.05,-607.875,watch_2
26332460839813,0.19381863,-0.17647067,9.746565,-0.0004581486,-0.0015271619,0.0001527162,-633.6938,-238.05,-607.875,watch_2
26332482861845,0.19381863,-0.17647067,9.746565,-0.0004581486,-0.0015271619,0.0001527162,-634.5,-237.31876,-607.8938,watch_2
26332492861793,0.19381863,-0.17647067,9.746565,-0.0004581486,-0.0015271619,0.0001527162,-634.61255,-235.12502,-611.325,watch_2
26332485577886,0.19381863,-0.18125631,9.746565,0.00076358096,0.0009162972,0.0001527162,-634.61255,-235.12502,-611.325,watch_2
26332480462782,0.19381863,-0.18125631,9.746565,0.00076358096,0.0009162972,0.0001527162,-634.61255,-235.12502,-611.325,watch_2
26332502861740,0.19381863,-0.18125631,9.746565,0.00076358096,0.0009162972,0.0001527162,-632.4563,-236.34377,-607.7625,watch_2
26332512861688,0.19381863,-0.18125631,9.746565,0.00076358096,0.0009162972,0.0001527162,-633.075,-236.23126,-610.16254,watch_2
26332505230907,0.18903299,-0.16211374,9.736994,0.00076358096,0.0009162972,0.0001527162,-633.075,-236.23126,-610.16254,watch_2
26332500115803,0.18903299,-0.16211374,9.736994,0.0019853106,0.0021380268,0.0001527162,-633.075,-236.23126,-610.16254,watch_2
26332522861636,0.18903299,-0.16211374,9.736994,0.0019853106,0.0021380268,0.0001527162,-632.3063,-236.15627,-609.075,watch_2
26332532861584,0.18903299,-0.16211374,9.736994,0.0019853106,0.0021380268,0.0001527162,-632.15625,-236.2875,-608.15625,watch_2
26332519738772,0.19381863,-0.15732808,9.741779,0.00076358096,-0.0003054324,0.0001527162,-632.15625,-236.2875,-608.15625,watch_2
26332524853876,0.19381863,-0.15732808,9.741779,0.00076358096,-0.0003054324,0.0001527162,-632.15625,-236.2875,-608.15625,watch_2
26332542861532,0.19381863,-0.15732808,9.741779,0.00076358096,-0.0003054324,0.0001527162,-632.85004,-237.24376,-607.85626,watch_2
26332552861480,0.19381863,-0.15732808,9.741779,0.00076358096,-0.0003054324,0.0001527162,-634.42505,-236.58751,-607.95,watch_2
26332539361793,0.18424734,-0.17168503,9.741779,-0.0004581486,0.0009162972,0.0001527162,-634.42505,-236.58751,-607.95,watch_2
26332544476897,0.18424734,-0.17168503,9.741779,-0.0004581486,0.0009162972,0.0001527162,-634.42505,-236.58751,-607.95,watch_2
26332562861428,0.18424734,-0.17168503,9.741779,-0.0004581486,0.0009162972,0.0001527162,-633.2625,-238.27501,-608.25,watch_2
26332572861376,0.18424734,-0.17168503,9.741779,-0.0004581486,0.0009162972,0.0001527162,-633.5813,-235.78127,-607.95,watch_2
26332564129918,0.19381863,-0.17647067,9.741779,-0.0004581486,-0.0015271619,0.0001527162,-633.5813,-235.78127,-607.95,watch_2
26332559014813,0.19381863,-0.17647067,9.741779,-0.0004581486,-0.0015271619,0.0001527162,-633.5813,-235.78127,-607.95,watch_2
26332582861324,0.19381863,-0.17647067,9.741779,-0.0004581486,-0.0015271619,0.0001527162,-633.0563,-236.25002,-609.15,watch_2
26332583752886,0.19381863,-0.19561325,9.741779,-0.0004581486,-0.0015271619,0.0001527162,-633.5063,-236.32501,-608.025,watch_2
26332578637782,0.19381863,-0.19561325,9.741779,-0.0004581486,-0.0015271619,0.0001527162,-633.5063,-236.32501,-608.025,watch_2
26332592861272,0.19381863,-0.19561325,9.741779,-0.0004581486,-0.0015271619,0.0001527162,-633.5063,-236.32501,-608.025,watch_2
26332602861220,0.19381863,-0.19561325,9.741779,-0.0004581486,-0.0015271619,0.0001527162,-633.41254,-235.6125,-608.0813,watch_2
26332612861168,0.19381863,-0.19561325,9.741779,-0.0004581486,-0.0015271619,0.0001527162,-631.95,-236.94376,-609.825,watch_2
26332598290803,0.18424734,-0.16689938,9.75135,0.00076358096,0.0021380268,-0.0010690134,-631.95,-236.94376,-609.825,watch_2
26332603405907,0.18424734,-0.16689938,9.75135,0.00076358096,0.0021380268,-0.0010690134,-631.95,-236.94376,-609.825,watch_2
26332622861115,0.18424734,-0.16689938,9.75135,0.00076358096,0.0021380268,-0.0010690134,-635.4375,-237.56252,-608.5688,watch_2
26332632861063,0.18424734,-0.17647067,9.741779,0.00076358096,0.0021380268,-0.0010690134,-633.6188,-237.31876,-608.66254,watch_2
26332623028876,0.18424734,-0.17647067,9.741779,0.00076358096,0.0021380268,-0.0010690134,-633.6188,-237.31876,-608.66254,watch_2
26332617913772,0.18424734,-0.17647067,9.741779,0.00076358096,0.0021380268,-0.0010690134,-633.6188,-237.31876,-608.66254,watch_2
26332642861011,0.18424734,-0.17647067,9.741779,0.00076358096,0.0021380268,-0.0010690134,-633.11255,-235.425,-608.6438,watch_2
26332642651897,0.18903299,-0.17168503,9.746565,-0.0004581486,-0.0015271619,-0.0010690134,-633.11255,-235.425,-608.6438,watch_2
26332637536793,0.18903299,-0.17168503,9.746565,-0.0004581486,-0.0015271619,-0.0010690134,-633.11255,-235.425,-608.6438,watch_2
26332652860959,0.18903299,-0.17168503,9.746565,-0.0004581486,-0.0015271619,-0.0010690134,-634.0125,-236.79376,-609.0563,watch_2
26332662860907,0.18903299,-0.17168503,9.746565,-0.0004581486,-0.0015271619,-0.0010690134,-635.4563,-237.54376,-609.5813,watch_2
26332662304918,0.18903299,-0.17168503,9.732208,-0.0004581486,-0.0015271619,0.0001527162,-635.4563,-237.54376,-609.5813,watch_2
26332657189813,0.18903299,-0.17168503,9.732208,-0.0004581486,-0.0015271619,0.0001527162,-635.4563,-237.54376,-609.5813,watch_2
26332672860855,0.18903299,-0.17168503,9.732208,-0.0004581486,-0.0015271619,0.0001527162,-634.16254,-238.2375,-608.4938,watch_2
26332682860803,0.18903299,-0.17168503,9.732208,-0.0004581486,-0.0015271619,0.0001527162,-634.16254,-238.2375,-608.4938,watch_2
26332676812782,0.18424734,-0.16211374,9.746565,0.00076358096,0.0009162972,0.0001527162,-634.16254,-238.2375,-608.4938,watch_2
26332681927886,0.18424734,-0.16211374,9.746565,0.00076358096,0.0009162972,0.0001527162,-634.16254,-238.2375,-608.4938,watch_2
26332692860751,0.18424734,-0.16211374,9.746565,0.00076358096,0.0009162972,0.0001527162,-631.6875,-237.33751,-609.16876,watch_2
26332702860699,0.18424734,-0.16211374,9.746565,0.00076358096,0.0009162972,0.0001527162,-633.22504,-236.41876,-609.0,watch_2
26332701580907,0.18903299,-0.16689938,9.736994,0.00076358096,-0.0003054324,0.0001527162,-633.22504,-236.41876,-609.0,watch_2
26332696465803,0.18903299,-0.16689938,9.736994,0.00076358096,-0.0003054324,0.0001527162,-633.22504,-236.41876,-609.0,watch_2
26332712860647,0.18903299,-0.16689938,9.736994,0.00076358096,-0.0003054324,0.0001527162,-632.0813,-237.15001,-607.78125,watch_2
26332722860595,0.18903299,-0.16689938,9.736994,0.00076358096,-0.0003054324,0.0001527162,-631.7438,-238.40627,-606.3188,watch_2
26332721203876,0.19381863,-0.17168503,9.732208,0.00076358096,0.0009162972,0.0001527162,-631.7438,-238.40627,-606.3188,watch_2
26332716088772,0.19381863,-0.17168503,9.732208,0.00076358096,0.0009162972,0.0001527162,-631.7438,-238.40627,-606.3188,watch_2
26332732860543,0.19381863,-0.17168503,9.732208,0.00076358096,0.0009162972,0.0001527162,-632.775,-236.85,-606.15,watch_2
26332742860490,0.19381863,-0.17168503,9.732208,0.00076358096,0.0009162972,0.0001527162,-633.03754,-237.69376,-607.40625,watch_2
26332752860438,0.19381863,-0.18125631,9.746565,-0.0004581486,-0.0003054324,0.0001527162,-632.5875,-237.31876,-609.4313,watch_2
26332740857886,0.19381863,-0.18125631,9.746565,-0.0004581486,-0.0003054324,0.0001527162,-633.03754,-237.69376,-607.40625,watch_2
26332735742782,0.19381863,-0.18125631,9.746565,-0.0004581486,-0.0003054324,0.0001527162,-633.03754,-237.69376,-607.40625,watch_2
26332762860386,0.19381863,-0.18125631,9.746565,-0.0004581486,-0.0003054324,0.0001527162,-630.67505,-236.38126,-608.2688,watch_2
26332760479918,0.19381863,-0.19561325,9.746565,-0.0004581486,-0.0003054324,-0.0010690134,-630.67505,-236.38126,-608.2688,watch_2
26332755364813,0.19381863,-0.19561325,9.746565,-0.0004581486,-0.0003054324,-0.0010690134,-630.67505,-236.38126,-608.2688,watch_2
26332772860334,0.19381863,-0.19561325,9.746565,-0.0004581486,-0.0003054324,-0.0010690134,-631.48126,-236.90627,-608.7563,watch_2
26332782860282,0.19381863,-0.19561325,9.746565,-0.0004581486,-0.0003054324,-0.0010690134,-631.48126,-236.90627,-608.7563,watch_2
26332774987782,0.19381863,-0.19561325,9.746565,0.00076358096,0.0009162972,0.0001527162,-633.6938,-238.03127,-608.60626,watch_2
26332792860230,0.19381863,-0.19561325,9.746565,0.00076358096,0.0009162972,0.0001527162,-633.6938,-238.03127,-608.60626,watch_2
26332780102886,0.19381863,-0.17168503,9.736994,0.00076358096,0.0009162972,0.0001527162,-633.6938,-238.03127,-608.60626,watch_2
26332802860178,0.19381863,-0.17168503,9.736994,0.00076358096,0.0009162972,0.0001527162,-631.6875,-238.93126,-607.40625,watch_2
26332799756897,0.18903299,-0.16689938,9.736994,0.00076358096,0.0009162972,0.0001527162,-631.6875,-238.93126,-607.40625,watch_2
26332794641793,0.18903299,-0.16689938,9.736994,-0.0004581486,0.0009162972,0.0001527162,-631.6875,-238.93126,-607.40625,watch_2
26332812860126,0.18903299,-0.16689938,9.736994,-0.0004581486,0.0009162972,0.0001527162,-632.17505,-236.58751,-608.1375,watch_2
26332822860074,0.18903299,-0.16689938,9.736994,-0.0004581486,0.0009162972,0.0001527162,-632.15625,-237.8625,-607.42505,watch_2
26332814263772,0.18903299,-0.16689938,9.746565,-0.0004581486,-0.0003054324,0.0001527162,-632.15625,-237.8625,-607.42505,watch_2
26332819378876,0.18903299,-0.16689938,9.746565,-0.0004581486,-0.0003054324,0.0001527162,-632.15625,-237.8625,-607.42505,watch_2
26332832860022,0.18903299,-0.16689938,9.746565,-0.0004581486,-0.0003054324,0.0001527162,-632.90625,-236.40001,-607.80005,watch_2
26332842859970,0.18903299,-0.16689938,9.746565,-0.0004581486,-0.0003054324,0.0001527162,-630.4313,-235.96877,-606.3938,watch_2
26332833917782,0.19860429,-0.17647067,9.736994,-0.0004581486,-0.0003054324,0.0001527162,-630.4313,-235.96877,-606.3938,watch_2
26332839032886,0.19860429,-0.17647067,9.736994,-0.0004581486,-0.0003054324,0.0001527162,-630.4313,-235.96877,-606.3938,watch_2
26332852859918,0.19860429,-0.17647067,9.736994,-0.0004581486,-0.0003054324,0.0001527162,-633.41254,-238.46251,-607.3688,watch_2
26332862859865,0.19860429,-0.17647067,9.736994,-0.0004581486,-0.0003054324,0.0001527162,-632.5688,-237.33751,-608.4,watch_2
26332858654918,0.1794617,-0.18125631,9.741779,-0.0004581486,-0.0003054324,0.0001527162,-632.5688,-237.33751,-608.4,watch_2
26332853539813,0.1794617,-0.18125631,9.741779,0.00076358096,0.0009162972,0.0001527162,-632.5688,-237.33751,-608.4,watch_2
26332872859813,0.1794617,-0.18125631,9.741779,0.00076358096,0.0009162972,0.0001527162,-633.3188,-239.04376,-606.0,watch_2
26332882859761,0.1794617,-0.18125631,9.741779,0.00076358096,0.0009162972,0.0001527162,-633.67505,-238.06876,-607.59375,watch_2
26332878277886,0.1794617,-0.16689938,9.75135,0.00076358096,0.0009162972,0.0001527162,-633.09375,-236.53127,-609.41254,watch_2
26332892859709,0.1794617,-0.16689938,9.75135,0.00076358096,0.0009162972,0.0001527162,-633.09375,-236.53127,-609.41254,watch_2
26332873162782,0.1794617,-0.16689938,9.75135,0.00076358096,0.0009162972,0.0001527162,-633.09375,-236.53127,-609.41254,watch_2
26332902859657,0.1794617,-0.16689938,9.75135,0.00076358096,0.0009162972,0.0001527162,-635.0625,-236.94376,-608.4375,watch_2
26332897931897,0.18903299,-0.16689938,9.736994,0.00076358096,-0.0003054324,0.0001527162,-635.0625,-236.94376,-608.4375,watch_2
26332892816793,0.18903299,-0.16689938,9.736994,0.00076358096,-0.0003054324,0.0001527162,-635.0625,-236.94376,-608.4375,watch_2
26332912859605,0.18903299,-0.16689938,9.736994,0.00076358096,-0.0003054324,0.0001527162,-634.1438,-236.3625,-609.97504,watch_2
26332922859553,0.18903299,-0.16689938,9.736994,0.00076358096,-0.0003054324,0.0001527162,-632.92505,-236.70001,-607.48126,watch_2
26332912438772,0.19381863,-0.17168503,9.736994,0.00076358096,0.0009162972,0.0001527162,-632.92505,-236.70001,-607.48126,watch_2
26332917553876,0.19381863,-0.17168503,9.736994,0.00076358096,0.0009162972,0.0001527162,-632.92505,-236.70001,-607.48126,watch_2
26332932859501,0.19381863,-0.17168503,9.736994,0.00076358096,0.0009162972,0.0001527162,-633.78754,-237.4875,-608.53125,watch_2
26332942859449,0.19381863,-0.17168503,9.736994,0.00076358096,0.0009162972,0.0001527162,-632.47504,-236.32501,-608.92505,watch_2
26332932092782,0.18424734,-0.18125631,9.736994,-0.0004581486,-0.0003054324,0.0001527162,-632.47504,-236.32501,-608.92505,watch_2
26332937207886,0.18424734,-0.18125631,9.736994,-0.0004581486,-0.0003054324,0.0001527162,-632.47504,-236.32501,-608.92505,watch_2
26332952859397,0.18424734,-0.18125631,9.736994,-0.0004581486,-0.0003054324,0.0001527162,-631.9313,-235.68752,-608.34375,watch_2
26332962859345,0.18424734,-0.18125631,9.736994,-0.0004581486,-0.0003054324,0.0001527162,-633.65625,-234.91876,-608.90625,watch_2
26332956829918,0.19860429,-0.18125631,9.622138,0.00076358096,-0.0003054324,-0.0010690134,-633.65625,-234.91876,-608.90625,watch_2
26332951714813,0.19860429,-0.18125631,9.622138,0.00076358096,-0.0003054324,-0.0010690134,-633.65625,-234.91876,-608.90625,watch_2
26332972859293,0.19860429,-0.18125631,9.622138,0.00076358096,-0.0003054324,-0.0010690134,-633.2438,-236.71877,-608.53125,watch_2
26332982859240,0.19860429,-0.18125631,9.622138,0.00076358096,-0.0003054324,-0.0010690134,-633.2438,-236.71877,-608.53125,watch_2
26332971337782,0.18903299,-0.16211374,9.9140625,0.00320704,0.0009162972,0.0001527162,-633.2438,-236.71877,-608.53125,watch_2
26332976452886,0.18903299,-0.16211374,9.9140625,0.00320704,0.0009162972,0.0001527162,-633.2438,-236.71877,-608.53125,watch_2
26332992859188,0.18903299,-0.16211374,9.9140625,0.00320704,0.0009162972,0.0001527162,-633.91876,-237.37502,-608.4,watch_2
26333002859136,0.18903299,-0.16211374,9.9140625,0.00320704,0.0009162972,0.0001527162,-632.8125,-236.79376,-608.625,watch_2
26332996106897,0.18424734,-0.16689938,9.684352,0.00320704,0.0009162972,0.0001527162,-632.8125,-236.79376,-608.625,watch_2
26332990991793,0.18424734,-0.16689938,9.684352,-0.0029016077,0.004581486,0.0001527162,-632.8125,-236.79376,-608.625,watch_2
26333012859084,0.18424734,-0.16689938,9.684352,-0.0029016077,0.004581486,0.0001527162,-632.25,-236.98126,-609.41254,watch_2
26333022859032,0.18424734,-0.16689938,9.684352,-0.0029016077,0.004581486,0.0001527162,-633.48755,-236.34377,-607.4438,watch_2
26333015728876,0.16510476,-0.18604197,9.775279,-0.0004581486,0.004581486,0.0001527162,-631.575,-236.6625,-607.1813,watch_2
26333010613772,0.16510476,-0.18604197,9.775279,-0.0004581486,0.004581486,0.0001527162,-631.575,-236.6625,-607.1813,watch_2
26333032858980,0.16510476,-0.18604197,9.775279,-0.0004581486,0.004581486,0.0001527162,-631.575,-236.6625,-607.1813,watch_2
26333042858928,0.20817557,-0.17168503,9.693923,-0.0004581486,0.004581486,0.0001527162,-631.96875,-237.58125,-606.86255,watch_2
26333035382886,0.20817557,-0.17168503,9.693923,-0.0004581486,-0.014966187,-0.0010690134,-631.96875,-237.58125,-606.86255,watch_2
26333030267782,0.20817557,-0.17168503,9.693923,-0.0004581486,-0.014966187,-0.0010690134,-631.96875,-237.58125,-606.86255,watch_2
26333052858876,0.20817557,-0.17168503,9.693923,-0.0004581486,-0.014966187,-0.0010690134,-630.5063,-239.40001,-605.34375,watch_2
