# Session ID: 20250816_085346
# Device ID: watch_1
# Start Time: 1755327226194
# Sample Count: 2141
# Generated by Watch IMU Recorder
timestamp,accel_x,accel_y,accel_z,gyro_x,gyro_y,gyro_z,mag_x,mag_y,mag_z,watch_name
12301940812796,1.7036897,3.5210385,9.061021,-0.0012217296,0.0030543238,-0.010231985,92.3625,87.5625,111.168755,watch_1
12301959882431,1.7036897,3.6167514,9.151948,-0.0012217296,0.0030543238,-0.010231985,92.3625,87.5625,111.168755,watch_1
12301978952066,1.7467605,3.434897,9.022736,-0.0012217296,0.0030543238,-0.010231985,92.3625,87.5625,111.168755,watch_1
12301998041702,1.6941184,3.377469,9.003593,-0.0012217296,0.0030543238,-0.010231985,92.3625,87.5625,111.168755,watch_1
12301993078941,1.6941184,3.377469,9.003593,0.012217295,0.048258316,-0.040775225,92.3625,87.5625,111.168755,watch_1
12302025664202,1.6941184,3.377469,9.003593,0.012217295,0.048258316,-0.040775225,95.86875,67.36875,98.7375,watch_1
12302035664150,1.6941184,3.377469,9.003593,0.012217295,0.048258316,-0.040775225,95.86875,67.36875,98.7375,watch_1
12302017084723,1.5984055,3.3343983,9.166306,0.012217295,0.048258316,-0.040775225,95.86875,67.36875,98.7375,watch_1
12302012121962,1.5984055,3.3343983,9.166306,0.074525505,0.037262753,-0.038331766,95.86875,67.36875,98.7375,watch_1
12302031194931,1.5984055,3.3343983,9.166306,0.09651663,0.022601997,-0.039553493,96.65626,69.4875,96.8625,watch_1
12302045664098,1.5984055,3.3343983,9.166306,0.09651663,0.022601997,-0.039553493,96.65626,69.4875,96.8625,watch_1
12302036157691,1.6127625,3.3870404,9.175877,0.09651663,0.022601997,-0.039553493,96.65626,69.4875,96.8625,watch_1
12302055664046,1.6127625,3.3870404,9.175877,0.09651663,0.022601997,-0.039553493,94.875,68.287506,96.4875,watch_1
12302050268941,1.6319051,3.5736806,9.233304,0.047647454,0.010384701,-0.033444848,94.875,68.287506,96.4875,watch_1
12302055231702,1.6319051,3.5736806,9.233304,0.047647454,0.010384701,-0.033444848,94.875,68.287506,96.4875,watch_1
12302065663993,1.6319051,3.5736806,9.233304,0.047647454,0.010384701,-0.033444848,95.86875,66.262505,97.668755,watch_1
12302075663941,1.6319051,3.5736806,9.233304,0.047647454,0.010384701,-0.033444848,96.18751,69.3,96.693756,watch_1
12302074304723,1.6797615,3.635894,9.151948,-0.02443459,-0.0067195124,-0.027336199,96.18751,69.3,96.693756,watch_1
12302069341962,1.6797615,3.635894,9.151948,-0.02443459,-0.0067195124,-0.027336199,96.28126,70.3125,96.01875,watch_1
12302085663889,1.6797615,3.635894,9.151948,-0.02443459,-0.0067195124,-0.027336199,96.28126,70.3125,96.01875,watch_1
12302095663837,1.6797615,3.635894,9.151948,-0.02443459,-0.0067195124,-0.027336199,97.51875,69.506256,95.231255,watch_1
12302093378733,1.6893328,3.5306098,8.946166,-0.07574723,-0.0140498895,-0.022449281,97.51875,69.506256,95.231255,watch_1
12302088415973,1.6893328,3.5306098,8.946166,-0.07574723,-0.0140498895,-0.022449281,97.51875,69.506256,95.231255,watch_1
12302105663785,1.6893328,3.5306098,8.946166,-0.07574723,-0.0140498895,-0.022449281,97.12501,68.11875,97.631256,watch_1
12302115663733,1.6893328,3.5306098,8.946166,-0.07574723,-0.0140498895,-0.022449281,97.18125,70.275,96.262505,watch_1
12302112451702,1.6414764,3.229114,8.883952,-0.04886918,-0.009162972,-0.018784093,97.18125,70.275,96.262505,watch_1
12302107488941,1.6414764,3.229114,8.883952,-0.04886918,-0.009162972,-0.018784093,97.18125,70.275,96.262505,watch_1
12302125663681,1.6414764,3.229114,8.883952,-0.04886918,-0.009162972,-0.018784093,95.700005,70.70625,93.731255,watch_1
12302135663629,1.6414764,3.229114,8.883952,-0.04886918,-0.009162972,-0.018784093,96.318756,70.59375,96.0,watch_1
12302131525712,1.5696917,3.1525438,8.883952,-0.04886918,-0.009162972,-0.018784093,96.318756,70.59375,96.0,watch_1
12302126562952,1.5696917,3.1525438,8.883952,0.06108648,0.0006108648,-0.032223117,96.037506,69.76875,93.8625,watch_1
12302145663577,1.5696917,3.1525438,8.883952,0.06108648,0.0006108648,-0.032223117,96.037506,69.76875,93.8625,watch_1
12302155663525,1.5696917,3.1525438,8.883952,0.06108648,0.0006108648,-0.032223117,95.0625,70.350006,93.693756,watch_1
12302150598733,1.564906,3.4444683,9.037093,0.16737695,0.0042760535,-0.04444041,95.0625,70.350006,93.693756,watch_1
12302145635973,1.564906,3.4444683,9.037093,0.16737695,0.0042760535,-0.04444041,95.0625,70.350006,93.693756,watch_1
12302165663473,1.564906,3.4444683,9.037093,0.16737695,0.0042760535,-0.04444041,95.4375,66.4875,97.6125,watch_1
12302175663421,1.564906,3.4444683,9.037093,0.16737695,0.0042760535,-0.04444041,96.318756,69.1875,95.850006,watch_1
12302164678941,1.5601203,3.674179,9.156734,0.13439025,-0.0018325944,-0.046883874,96.318756,69.1875,95.850006,watch_1
12302169641702,1.5601203,3.674179,9.156734,0.13439025,-0.0018325944,-0.046883874,95.0625,68.90625,94.55625,watch_1
12302185663368,1.5601203,3.674179,9.156734,0.13439025,-0.0018325944,-0.046883874,95.0625,68.90625,94.55625,watch_1
12302195663316,1.5601203,3.674179,9.156734,0.13439025,-0.0018325944,-0.046883874,95.025,68.475006,95.043755,watch_1
12302188714723,1.5984055,3.7459638,9.008379,0.0036651888,-0.0030543238,-0.038331766,95.025,68.475006,95.043755,watch_1
12302183751962,1.5984055,3.7459638,9.008379,0.0036651888,-0.0030543238,-0.038331766,95.025,68.475006,95.043755,watch_1
12302205663264,1.5984055,3.7459638,9.008379,0.0036651888,-0.0030543238,-0.038331766,96.131256,70.78125,93.3375,watch_1
12302215663212,1.5984055,3.7459638,9.008379,0.0036651888,-0.0030543238,-0.038331766,96.825005,72.675,94.8375,watch_1
12302202825973,1.6223338,3.6598222,9.01795,-0.05253437,-0.0030543238,-0.02611447,96.825005,72.675,94.8375,watch_1
12302207788733,1.6223338,3.6598222,9.01795,-0.05253437,-0.0030543238,-0.02611447,96.825005,72.675,94.8375,watch_1
12302225663160,1.6223338,3.6598222,9.01795,-0.05253437,-0.0030543238,-0.02611447,96.65626,68.4,95.53125,watch_1
12302235663108,1.6223338,3.6598222,9.01795,-0.05253437,-0.0030543238,-0.02611447,94.59375,70.293755,93.65625,watch_1
12302226861702,1.5218352,3.5593238,9.061021,-0.046425723,-0.0042760535,-0.020005822,94.59375,70.293755,93.65625,watch_1
12302221898941,1.5218352,3.5593238,9.061021,-0.046425723,-0.0042760535,-0.020005822,94.59375,70.293755,93.65625,watch_1
12302245663056,1.5218352,3.5593238,9.061021,-0.046425723,-0.0042760535,-0.020005822,94.068756,67.912506,95.71875,watch_1
12302255663004,1.5218352,3.5593238,9.061021,-0.046425723,-0.0042760535,-0.020005822,96.225006,70.387505,92.662506,watch_1
12302245935712,1.5218352,3.286542,8.927023,-0.046425723,-0.0042760535,-0.020005822,96.225006,70.387505,92.662506,watch_1
12302240972952,1.5218352,3.286542,8.927023,-0.015882485,-0.010384701,-0.02367101,96.225006,70.387505,92.662506,watch_1
12302265662952,1.5218352,3.286542,8.927023,-0.015882485,-0.010384701,-0.02367101,95.175,69.9,95.2125,watch_1
12302260045973,1.4596218,3.2626138,8.903095,0.07086031,-0.0018325944,-0.038331766,94.950005,72.1875,92.925,watch_1
12302275662900,1.4596218,3.2626138,8.903095,0.07086031,-0.0018325944,-0.038331766,94.950005,72.1875,92.925,watch_1
12302265008733,1.4596218,3.2626138,8.903095,0.07086031,-0.0018325944,-0.038331766,94.950005,72.1875,92.925,watch_1
12302285662848,1.4596218,3.2626138,8.903095,0.07086031,-0.0018325944,-0.038331766,93.693756,70.3125,93.24375,watch_1
12302284082691,1.4739788,3.463611,9.027522,0.13805544,0.009162972,-0.0481056,94.6875,71.30625,92.53125,watch_1
12302295662796,1.4739788,3.463611,9.027522,0.13805544,0.009162972,-0.0481056,94.6875,71.30625,92.53125,watch_1
12302279119931,1.4739788,3.463611,9.027522,0.13805544,0.009162972,-0.0481056,94.6875,71.30625,92.53125,watch_1
12302305662743,1.4739788,3.463611,9.027522,0.13805544,0.009162972,-0.0481056,94.443756,70.425,92.7375,watch_1
12302298192952,1.5122639,3.7459638,9.223733,0.12950334,0.01527162,-0.05299252,94.443756,70.425,92.7375,watch_1
12302303155712,1.5122639,3.7459638,9.223733,0.12950334,0.01527162,-0.05299252,94.443756,70.425,92.7375,watch_1
12302315662691,1.5122639,3.7459638,9.223733,0.12950334,0.01527162,-0.05299252,94.6125,71.850006,93.20625,watch_1
12302325662639,1.5122639,3.7459638,9.223733,0.12950334,0.01527162,-0.05299252,96.18751,71.2125,93.3,watch_1
12302322198733,1.5170496,3.8847475,9.324232,0.12950334,0.01527162,-0.05299252,96.18751,71.2125,93.3,watch_1
12302317235973,1.5170496,3.8847475,9.324232,0.019547673,0.007941242,-0.045662142,96.18751,71.2125,93.3,watch_1
12302335662587,1.5170496,3.8847475,9.324232,0.019547673,0.007941242,-0.045662142,96.506256,72.637505,94.068756,watch_1
12302345662535,1.5170496,3.8847475,9.324232,0.019547673,0.007941242,-0.045662142,94.6875,71.325005,91.818756,watch_1
12302336309931,1.5457634,3.674179,9.147162,-0.10873393,-0.01282816,-0.039553493,94.6875,71.325005,91.818756,watch_1
12302341272691,1.5457634,3.674179,9.147162,-0.10873393,-0.01282816,-0.039553493,95.49375,70.256256,94.18125,watch_1
12302355662483,1.5457634,3.674179,9.147162,-0.10873393,-0.01282816,-0.039553493,95.49375,70.256256,94.18125,watch_1
12302365662431,1.5457634,3.674179,9.147162,-0.10873393,-0.01282816,-0.039553493,94.575005,70.3125,92.625,watch_1
12302355382952,1.5984055,3.4779677,8.922237,-0.11362085,-0.011606431,-0.037110034,94.575005,70.3125,92.625,watch_1
12302360345712,1.5984055,3.4779677,8.922237,-0.11362085,-0.011606431,-0.037110034,94.575005,70.3125,92.625,watch_1
12302375662379,1.5984055,3.4779677,8.922237,-0.11362085,-0.011606431,-0.037110034,94.856255,71.475006,92.68125,watch_1
12302385662327,1.5984055,3.4779677,8.922237,-0.11362085,-0.011606431,-0.037110034,94.762505,70.4625,93.356255,watch_1
12302379419723,1.5314065,3.3439696,8.807382,-0.11362085,-0.011606431,-0.037110034,94.762505,70.4625,93.356255,watch_1
12302374456962,1.5314065,3.3439696,8.807382,-0.012217295,0.0030543238,-0.038331766,94.55625,71.4375,92.662506,watch_1
12302395662275,1.5314065,3.3439696,8.807382,-0.012217295,0.0030543238,-0.038331766,94.55625,71.4375,92.662506,watch_1
12302405662223,1.4117653,3.458825,8.903095,0.106290475,0.016493348,-0.043218683,95.5875,69.693756,94.106255,watch_1
12302398492691,1.4117653,3.458825,8.903095,0.106290475,0.016493348,-0.043218683,95.5875,69.693756,94.106255,watch_1
12302393529931,1.4117653,3.458825,8.903095,0.106290475,0.016493348,-0.043218683,95.5875,69.693756,94.106255,watch_1
12302415662171,1.4117653,3.458825,8.903095,0.106290475,0.016493348,-0.043218683,94.856255,73.05,91.36875,watch_1
12302425662118,1.4117653,3.458825,8.903095,0.15760311,0.017715078,-0.046883874,93.825005,72.9,92.568756,watch_1
12302412603941,1.3974084,3.731607,9.094521,0.15760311,0.017715078,-0.046883874,93.825005,72.9,92.568756,watch_1
12302417566702,1.3974084,3.731607,9.094521,0.15760311,0.017715078,-0.046883874,93.825005,72.9,92.568756,watch_1
12302435662066,1.3974084,3.731607,9.094521,0.15760311,0.017715078,-0.046883874,93.075005,70.256256,92.606255,watch_1
12302445662014,1.4548361,3.918247,9.195019,0.08796453,0.0140498895,-0.04444041,93.318756,70.818756,93.731255,watch_1
12302431676962,1.4548361,3.918247,9.195019,0.08796453,0.0140498895,-0.04444041,93.318756,70.818756,93.731255,watch_1
12302436639723,1.4548361,3.918247,9.195019,0.08796453,0.0140498895,-0.04444041,93.318756,70.818756,93.731255,watch_1
12302455661962,1.4548361,3.918247,9.195019,0.08796453,0.0140498895,-0.04444041,93.39375,71.850006,92.34375,watch_1
12302465661910,1.4596218,3.7507496,9.041879,0.08796453,0.0140498895,-0.04444041,95.15625,69.9375,93.168755,watch_1
12302455713733,1.4596218,3.7507496,9.041879,0.08796453,0.0140498895,-0.04444041,95.15625,69.9375,93.168755,watch_1
12302450750973,1.4596218,3.7507496,9.041879,-0.06475167,0.0067195124,-0.032223117,97.51875,71.418755,91.8375,watch_1
12302475661858,1.4596218,3.7507496,9.041879,-0.06475167,0.0067195124,-0.032223117,97.51875,71.418755,91.8375,watch_1
12302474756702,1.4739788,3.3200414,8.802596,-0.06475167,0.0067195124,-0.032223117,97.51875,71.418755,91.8375,watch_1
12302469793941,1.4739788,3.3200414,8.802596,-0.12950334,0.0067195124,-0.02611447,93.15,70.96875,92.55,watch_1
12302485661806,1.4739788,3.3200414,8.802596,-0.12950334,0.0067195124,-0.02611447,95.568756,71.30625,91.481255,watch_1
12302495661754,1.4739788,3.3200414,8.802596,-0.12950334,0.0067195124,-0.02611447,95.568756,71.30625,91.481255,watch_1
12302488866962,1.4644074,3.1716864,8.740383,-0.028099779,0.01527162,-0.033444848,95.100006,70.6125,94.9875,watch_1
12302505661702,1.4644074,3.1716864,8.740383,-0.028099779,0.01527162,-0.033444848,95.100006,70.6125,94.9875,watch_1
12302493829723,1.4644074,3.1716864,8.740383,-0.028099779,0.01527162,-0.033444848,95.100006,70.6125,94.9875,watch_1
12302515661650,1.4644074,3.1716864,8.740383,-0.028099779,0.01527162,-0.033444848,93.58125,72.01875,92.775,watch_1
12302507940973,1.4835501,3.4540396,8.836096,0.106290475,0.026267186,-0.039553493,93.58125,72.01875,92.775,watch_1
12302512903733,1.4835501,3.4540396,8.836096,0.106290475,0.026267186,-0.039553493,93.58125,72.01875,92.775,watch_1
12302525661598,1.4835501,3.4540396,8.836096,0.106290475,0.026267186,-0.039553493,93.637505,70.068756,91.668755,watch_1
12302535661546,1.4835501,3.4540396,8.836096,0.106290475,0.026267186,-0.039553493,94.350006,70.9875,92.100006,watch_1
12302531976702,1.4500505,3.674179,9.027522,0.15271619,0.029932374,-0.0481056,95.15625,71.3625,92.86875,watch_1
12302527013941,1.4500505,3.674179,9.027522,0.15271619,0.029932374,-0.0481056,95.15625,71.3625,92.86875,watch_1
12302545661493,1.4500505,3.674179,9.027522,0.15271619,0.029932374,-0.0481056,95.15625,71.3625,92.86875,watch_1
12302555661441,1.4500505,3.674179,9.027522,0.15271619,0.029932374,-0.0481056,93.76875,71.043755,93.1875,watch_1
12302551050712,1.4117653,3.8703907,9.175877,0.098960094,0.023823727,-0.046883874,93.76875,71.043755,93.1875,watch_1
12302546087952,1.4117653,3.8703907,9.175877,0.098960094,0.023823727,-0.046883874,93.76875,71.043755,93.1875,watch_1
12302565661389,1.4117653,3.8703907,9.175877,0.098960094,0.023823727,-0.046883874,95.71875,71.15625,92.9625,watch_1
12302575661337,1.4117653,3.8703907,9.175877,0.098960094,0.023823727,-0.046883874,95.381256,71.943756,93.28125,watch_1
12302565160973,1.4500505,3.8368912,9.065806,0.0061086477,0.011606431,-0.039553493,95.381256,71.943756,93.28125,watch_1
12302570123733,1.4500505,3.8368912,9.065806,0.0061086477,0.011606431,-0.039553493,95.381256,71.943756,93.28125,watch_1
12302585661285,1.4500505,3.8368912,9.065806,0.0061086477,0.011606431,-0.039553493,95.193756,70.537506,92.100006,watch_1
12302595661233,1.4500505,3.8368912,9.065806,0.0061086477,0.011606431,-0.039553493,96.318756,71.08125,93.1875,watch_1
12302589197691,1.4548361,3.7363925,8.960523,0.0061086477,0.011606431,-0.039553493,96.318756,71.08125,93.1875,watch_1
12302584234931,1.4548361,3.7363925,8.960523,-0.019547673,0.0030543238,-0.020005822,96.318756,71.08125,93.1875,watch_1
12302605661181,1.4548361,3.7363925,8.960523,-0.019547673,0.0030543238,-0.020005822,94.387505,71.26875,92.512505,watch_1
12302615661129,1.4452649,3.6646078,8.903095,-0.019547673,0.0030543238,-0.020005822,93.375,69.975006,93.675,watch_1
12302608270712,1.4452649,3.6646078,8.903095,-0.019547673,0.0030543238,-0.020005822,93.375,69.975006,93.675,watch_1
12302603307952,1.4452649,3.6646078,8.903095,0.02932151,0.0030543238,-0.0016798781,93.375,69.975006,93.675,watch_1
12302625661077,1.4452649,3.6646078,8.903095,0.02932151,0.0030543238,-0.0016798781,94.200005,70.818756,92.9625,watch_1
12302635661025,1.4261223,3.6933217,8.960523,0.02932151,0.0030543238,-0.0016798781,94.875,71.45625,93.28125,watch_1
12302627313733,1.4261223,3.6933217,8.960523,0.02932151,0.0030543238,-0.0016798781,94.875,71.45625,93.28125,watch_1
12302622350973,1.4261223,3.6933217,8.960523,0.07819069,0.0067195124,0.0044287695,94.875,71.45625,93.28125,watch_1
12302645660973,1.4261223,3.6933217,8.960523,0.07819069,0.0067195124,0.0044287695,95.887505,72.9,91.5,watch_1
12302655660921,1.402194,3.7938204,9.108877,0.07819069,0.0067195124,0.0044287695,94.387505,70.950005,94.575005,watch_1
12302646387691,1.402194,3.7938204,9.108877,0.07819069,0.0067195124,0.0044287695,94.387505,70.950005,94.575005,watch_1
12302641424931,1.402194,3.7938204,9.108877,0.07208204,0.011606431,0.00076358096,94.387505,70.950005,94.575005,watch_1
12302665660868,1.402194,3.7938204,9.108877,0.07208204,0.011606431,0.00076358096,93.375,70.293755,92.34375,watch_1
12302660497952,1.3734802,3.7124643,9.099306,0.0036651888,0.0067195124,0.0044287695,95.025,70.36875,92.231255,watch_1
12302665460712,1.3734802,3.7124643,9.099306,0.0036651888,0.0067195124,0.0044287695,95.025,70.36875,92.231255,watch_1
12302675660816,1.3734802,3.7124643,9.099306,0.0036651888,0.0067195124,0.0044287695,95.025,70.36875,92.231255,watch_1
12302685660764,1.3734802,3.7124643,9.099306,0.0036651888,0.0067195124,0.0044287695,93.450005,71.025,91.8375,watch_1
12302695660712,1.4452649,3.5449667,8.950952,-0.02932151,0.0018325944,-0.0004581486,93.543755,71.71875,93.09375,watch_1
12302684534723,1.4452649,3.5449667,8.950952,-0.02932151,0.0018325944,-0.0004581486,93.543755,71.71875,93.09375,watch_1
12302679571962,1.4452649,3.5449667,8.950952,-0.02932151,0.0018325944,-0.0004581486,93.543755,71.71875,93.09375,watch_1
12302705660660,1.4452649,3.5449667,8.950952,-0.02932151,0.0018325944,-0.0004581486,94.762505,70.4625,93.356255,watch_1
12302698644931,1.4644074,3.5784662,8.888738,0.02443459,0.0042760535,-0.005345067,94.762505,70.4625,93.356255,watch_1
12302703607691,1.4644074,3.5784662,8.888738,0.02443459,0.0042760535,-0.005345067,94.762505,70.4625,93.356255,watch_1
12302715660608,1.4644074,3.5784662,8.888738,0.02443459,0.0042760535,-0.005345067,93.58125,69.318756,93.3375,watch_1
12302725660556,1.4644074,3.5784662,8.888738,0.02443459,0.0042760535,-0.005345067,96.131256,69.037506,95.100006,watch_1
12302722681702,1.4644074,3.5306098,8.907881,0.10262528,0.01282816,-0.018784093,96.131256,69.037506,95.100006,watch_1
12302717718941,1.4644074,3.5306098,8.907881,0.10262528,0.01282816,-0.018784093,96.131256,69.037506,95.100006,watch_1
12302735660504,1.4644074,3.5306098,8.907881,0.10262528,0.01282816,-0.018784093,97.89375,69.787506,96.84376,watch_1
12302745660452,1.4644074,3.5306098,8.907881,0.10262528,0.01282816,-0.018784093,95.175,68.325005,96.525,watch_1
12302741754723,1.4404793,3.6981075,9.027522,0.14538582,0.018936807,-0.027336199,95.175,68.325005,96.525,watch_1
12302755660400,1.4404793,3.6981075,9.027522,0.14538582,0.018936807,-0.027336199,95.175,68.662506,93.881256,watch_1
12302736791962,1.4404793,3.6981075,9.027522,0.14538582,0.018936807,-0.027336199,95.175,68.662506,93.881256,watch_1
12302765660348,1.4404793,3.6981075,9.027522,0.14538582,0.018936807,-0.027336199,95.231255,69.05625,95.15625,watch_1
12302760827691,1.4213367,3.8895333,9.104092,0.1075122,0.020158539,-0.027336199,95.231255,69.05625,95.15625,watch_1
12302755864931,1.4213367,3.8895333,9.104092,0.1075122,0.020158539,-0.027336199,94.481255,71.981255,93.037506,watch_1
12302775660296,1.4213367,3.8895333,9.104092,0.1075122,0.020158539,-0.027336199,94.481255,71.981255,93.037506,watch_1
12302785660243,1.4213367,3.8895333,9.104092,0.1075122,0.020158539,-0.027336199,93.76875,70.725006,94.2375,watch_1
12302779870712,1.4356936,3.8464625,9.037093,0.1075122,0.020158539,-0.027336199,93.76875,70.725006,94.2375,watch_1
12302774907952,1.4356936,3.8464625,9.037093,0.02443459,0.005497783,-0.02489274,93.76875,70.725006,94.2375,watch_1
12302795660191,1.4356936,3.8464625,9.037093,0.02443459,0.005497783,-0.02489274,94.36875,69.39375,94.443756,watch_1
12302805660139,1.4356936,3.8464625,9.037093,0.02443459,0.005497783,-0.02489274,95.08125,67.631256,95.26875,watch_1
12302798944723,1.4500505,3.7459638,8.917452,0.02443459,0.005497783,-0.02489274,95.08125,67.631256,95.26875,watch_1
12302793981962,1.4500505,3.7459638,8.917452,-0.010995566,-0.005497783,-0.0151189035,95.08125,67.631256,95.26875,watch_1
12302815660087,1.4500505,3.7459638,8.917452,-0.010995566,-0.005497783,-0.0151189035,96.412506,68.606255,97.21876,watch_1
12302825660035,1.4500505,3.7459638,8.917452,-0.010995566,-0.005497783,-0.0151189035,95.925,68.775,93.225006,watch_1
12302818017691,1.4787644,3.7076788,8.840881,-0.010995566,-0.005497783,-0.0151189035,95.925,68.775,93.225006,watch_1
12302813054931,1.4787644,3.7076788,8.840881,0.010995566,-0.005497783,-0.012675445,95.925,68.775,93.225006,watch_1
12302835659983,1.4787644,3.7076788,8.840881,0.010995566,-0.005497783,-0.012675445,96.225006,70.068756,94.293755,watch_1
12302845659931,1.4787644,3.7076788,8.840881,0.010995566,-0.005497783,-0.012675445,94.6125,69.168755,93.46875,watch_1
12302837091702,1.430908,3.7124643,8.883952,0.010995566,-0.005497783,-0.012675445,94.6125,69.168755,93.46875,watch_1
12302832128941,1.430908,3.7124643,8.883952,0.035430156,0.0006108648,-0.005345067,94.575005,68.887505,93.20625,watch_1
12302855659879,1.430908,3.7124643,8.883952,0.035430156,0.0006108648,-0.005345067,94.575005,68.887505,93.20625,watch_1
12302856164723,1.3591232,3.6311083,8.893523,0.035430156,0.0006108648,-0.005345067,94.575005,68.887505,93.20625,watch_1
12302865659827,1.3591232,3.6311083,8.893523,0.035430156,0.0006108648,-0.005345067,94.575005,68.887505,93.20625,watch_1
12302851201962,1.3591232,3.6311083,8.893523,0.05253437,0.0006108648,-0.004123337,94.575005,68.887505,93.20625,watch_1
12302875659775,1.3591232,3.6311083,8.893523,0.05253437,0.0006108648,-0.004123337,96.24375,67.350006,95.5875,watch_1
12302875238733,1.4261223,3.635894,8.869596,0.05253437,0.0006108648,-0.004123337,96.24375,67.350006,95.5875,watch_1
12302870275973,1.4261223,3.635894,8.869596,0.092851445,-0.0030543238,-0.011453714,96.99375,67.14375,96.412506,watch_1
12302885659723,1.4261223,3.635894,8.869596,0.092851445,-0.0030543238,-0.011453714,96.99375,67.14375,96.412506,watch_1
12302895659671,1.4261223,3.635894,8.869596,0.092851445,-0.0030543238,-0.011453714,94.200005,67.8,95.006256,watch_1
12302889348941,1.4261223,3.635894,8.869596,0.11362085,0.0067195124,-0.018784093,94.200005,67.8,95.006256,watch_1
12302894311702,1.4739788,3.8895333,8.984451,0.11362085,0.0067195124,-0.018784093,94.200005,67.8,95.006256,watch_1
12302905659618,1.4739788,3.8895333,8.984451,0.11362085,0.0067195124,-0.018784093,95.3625,65.943756,95.90625,watch_1
12302915659566,1.4548361,4.061816,9.104092,0.039095346,0.005497783,-0.020005822,93.9375,68.043755,95.53125,watch_1
12302913385712,1.4548361,4.061816,9.104092,0.039095346,0.005497783,-0.020005822,93.9375,68.043755,95.53125,watch_1
12302925659514,1.4548361,4.061816,9.104092,0.039095346,0.005497783,-0.020005822,93.9375,68.043755,95.53125,watch_1
12302908422952,1.4548361,4.061816,9.104092,0.039095346,0.005497783,-0.020005822,93.9375,68.043755,95.53125,watch_1
12302935659462,1.4548361,4.061816,9.104092,0.039095346,0.005497783,-0.020005822,97.03126,67.725006,95.625,watch_1
12302932428733,1.5026926,3.760321,8.931808,-0.05986475,-0.0042760535,-0.018784093,97.03126,67.725006,95.625,watch_1
12302927465973,1.5026926,3.760321,8.931808,-0.05986475,-0.0042760535,-0.018784093,97.03126,67.725006,95.625,watch_1
12302951501702,1.4739788,3.7220356,8.874381,-0.02565632,0.0006108648,-0.009010255,97.2375,69.1125,98.287506,watch_1
12302945659410,1.4739788,3.7220356,8.874381,-0.02565632,0.0006108648,-0.009010255,97.2375,69.1125,98.287506,watch_1
12302955659358,1.4739788,3.7220356,8.874381,-0.02565632,0.0006108648,-0.009010255,97.2375,69.1125,98.287506,watch_1
12302946538941,1.4739788,3.7220356,8.874381,-0.02565632,0.0006108648,-0.009010255,97.05,67.725006,95.925,watch_1
12302975659254,1.4739788,3.7220356,8.874381,-0.02565632,0.0006108648,-0.009010255,97.05,67.725006,95.925,watch_1
12302970575712,1.3256238,3.7411783,8.960523,0.02932151,-0.005497783,0.00076358096,97.05,67.725006,95.925,watch_1
12302965659306,1.3256238,3.7411783,8.960523,0.02932151,-0.005497783,0.00076358096,95.64375,68.53125,96.412506,watch_1
12302989648733,1.4213367,3.6550367,8.893523,0.0537561,-0.018936807,-0.0065667965,94.912506,67.14375,96.75001,watch_1
12302984685973,1.4213367,3.6550367,8.893523,0.0537561,-0.018936807,-0.0065667965,94.912506,67.14375,96.75001,watch_1
12302985659202,1.3256238,3.7411783,8.960523,0.02932151,-0.005497783,0.00076358096,96.43125,67.5,96.450005,watch_1
12303005659098,1.4213367,3.6550367,8.893523,0.0537561,-0.018936807,-0.0065667965,94.275,68.34375,96.262505,watch_1
12303015659046,1.4213367,3.6550367,8.893523,0.0537561,-0.018936807,-0.0065667965,94.275,68.34375,96.262505,watch_1
12302965612952,1.3256238,3.7411783,8.960523,0.02932151,-0.005497783,0.00076358096,96.43125,67.5,96.450005,watch_1
12302995659150,1.3256238,3.7411783,8.960523,0.02932151,-0.005497783,0.00076358096,96.43125,67.5,96.450005,watch_1
12303008722691,1.4931214,3.7124643,8.860024,0.0537561,-0.018936807,-0.0065667965,94.275,68.34375,96.262505,watch_1
12303025658993,1.4931214,3.7124643,8.860024,0.106290475,-0.016493348,-0.018784093,95.943756,65.4,98.64375,watch_1
12303003759931,1.4931214,3.7124643,8.860024,0.106290475,-0.016493348,-0.018784093,95.943756,65.4,98.64375,watch_1
12303035658941,1.4931214,3.7124643,8.860024,0.106290475,-0.016493348,-0.018784093,94.856255,66.881256,95.45625,watch_1
12303027795712,1.4691931,4.0761733,8.979665,0.106290475,-0.016493348,-0.018784093,94.856255,66.881256,95.45625,watch_1
12303022832952,1.4691931,4.0761733,8.979665,0.118507765,-0.0030543238,-0.021227552,94.856255,66.881256,95.45625,watch_1
12303045658889,1.4691931,4.0761733,8.979665,0.118507765,-0.0030543238,-0.021227552,96.075005,68.606255,95.137505,watch_1
12303055658837,1.4691931,4.0761733,8.979665,0.118507765,-0.0030543238,-0.021227552,96.225006,67.05,96.3375,watch_1
12303046869723,1.430908,4.1479583,9.113664,0.02687805,-0.0042760535,-0.011453714,96.225006,67.05,96.3375,watch_1
12303041906962,1.430908,4.1479583,9.113664,0.02687805,-0.0042760535,-0.011453714,96.225006,67.05,96.3375,watch_1
12303065658785,1.430908,4.1479583,9.113664,0.02687805,-0.0042760535,-0.011453714,94.55625,68.418755,94.55625,watch_1
12303075658733,1.430908,4.1479583,9.113664,0.02687805,-0.0042760535,-0.011453714,94.950005,69.637505,92.7375,watch_1
12303060979931,1.4739788,3.8321054,8.931808,-0.073303774,-0.01282816,-0.0029016077,94.950005,69.637505,92.7375,watch_1
12303065942691,1.4739788,3.8321054,8.931808,-0.073303774,-0.01282816,-0.0029016077,94.950005,69.637505,92.7375,watch_1
12303085658681,1.4739788,3.8321054,8.931808,-0.073303774,-0.01282816,-0.0029016077,96.637505,69.525,95.26875,watch_1
12303084985712,1.4452649,3.6598222,8.793025,-0.028099779,-0.0067195124,-0.0029016077,96.637505,69.525,95.26875,watch_1
12303080022952,1.4452649,3.6598222,8.793025,-0.028099779,-0.0067195124,-0.0029016077,96.637505,69.525,95.26875,watch_1
12303095658629,1.4452649,3.6598222,8.793025,-0.028099779,-0.0067195124,-0.0029016077,94.912506,69.037506,94.387505,watch_1
12303105658577,1.4452649,3.6598222,8.793025,-0.028099779,-0.0067195124,-0.0029016077,95.9625,66.95625,98.64375,watch_1
12303104059723,1.3734802,3.8847475,8.974879,-0.028099779,-0.0067195124,-0.0029016077,95.9625,66.95625,98.64375,watch_1
12303099096962,1.3734802,3.8847475,8.974879,0.07208204,0.0006108648,-0.0016798781,95.9625,66.95625,98.64375,watch_1
12303115658525,1.3734802,3.8847475,8.974879,0.07208204,0.0006108648,-0.0016798781,94.256256,65.3625,96.56251,watch_1
12303125658473,1.3734802,3.8847475,8.974879,0.07208204,0.0006108648,-0.0016798781,95.193756,65.606255,97.51875,watch_1
12303123132691,1.430908,3.932604,9.080164,0.043982264,-0.0042760535,-0.010231985,95.193756,65.606255,97.51875,watch_1
12303118169931,1.430908,3.932604,9.080164,0.043982264,-0.0042760535,-0.010231985,95.193756,65.606255,97.51875,watch_1
12303135658421,1.430908,3.932604,9.080164,0.043982264,-0.0042760535,-0.010231985,98.043755,68.700005,95.793755,watch_1
12303142206702,1.4404793,3.9038901,8.998808,-0.02443459,-0.009162972,-0.009010255,96.075005,65.287506,98.08125,watch_1
12303137243941,1.4404793,3.9038901,8.998808,-0.02443459,-0.009162972,-0.009010255,96.075005,65.287506,98.08125,watch_1
12303145658368,1.4404793,3.9038901,8.998808,-0.02443459,-0.009162972,-0.009010255,96.075005,65.287506,98.08125,watch_1
12303155658316,1.4404793,3.9038901,8.998808,-0.02443459,-0.009162972,-0.009010255,94.89375,67.162506,96.168755,watch_1
12303165658264,1.4404793,3.9038901,8.998808,-0.02443459,-0.009162972,-0.009010255,94.89375,67.162506,96.168755,watch_1
12303161279723,1.4739788,3.879962,8.903095,-0.02443459,-0.009162972,-0.009010255,94.89375,67.162506,96.168755,watch_1
12303156316962,1.4739788,3.879962,8.903095,-0.032986697,-0.0067195124,-0.005345067,94.950005,66.0,97.74375,watch_1
12303175658212,1.4739788,3.879962,8.903095,-0.032986697,-0.0067195124,-0.005345067,94.950005,66.0,97.74375,watch_1
12303185658160,1.4739788,3.879962,8.903095,-0.032986697,-0.0067195124,-0.005345067,96.975006,68.26875,96.731255,watch_1
12303180353733,1.4931214,3.7794633,8.869596,-0.032986697,-0.0067195124,-0.005345067,96.975006,68.26875,96.731255,watch_1
12303175390973,1.4931214,3.7794633,8.869596,0.008552107,-0.0006108648,-0.0065667965,96.975006,68.26875,96.731255,watch_1
12303195658108,1.4931214,3.7794633,8.869596,0.008552107,-0.0006108648,-0.0065667965,96.412506,67.5,95.71875,watch_1
12303205658056,1.4931214,3.7794633,8.869596,0.008552107,-0.0006108648,-0.0065667965,96.8625,67.256256,96.825005,watch_1
12303199426702,1.4356936,3.822534,8.922237,0.008552107,-0.0006108648,-0.0065667965,96.8625,67.256256,96.825005,watch_1
12303194463941,1.4356936,3.822534,8.922237,0.056199558,0.0018325944,-0.0065667965,96.8625,67.256256,96.825005,watch_1
12303215658004,1.4356936,3.822534,8.922237,0.056199558,0.0018325944,-0.0065667965,95.025,68.475006,95.043755,watch_1
12303225657952,1.4356936,3.822534,8.922237,0.056199558,0.0018325944,-0.0065667965,94.9875,64.6875,100.05,watch_1
12303218500712,1.430908,3.9230328,9.027522,0.056199558,0.0018325944,-0.0065667965,94.9875,64.6875,100.05,watch_1
12303213537952,1.430908,3.9230328,9.027522,0.056199558,0.0018325944,-0.011453714,94.9875,64.6875,100.05,watch_1
12303235657900,1.430908,3.9230328,9.027522,0.056199558,0.0018325944,-0.011453714,96.28126,67.3125,97.6125,watch_1
12303245657848,1.430908,3.9230328,9.027522,0.056199558,0.0018325944,-0.011453714,95.53125,67.51875,96.20625,watch_1
12303237543733,1.4883357,3.8943188,8.974879,0.056199558,0.0018325944,-0.011453714,95.53125,67.51875,96.20625,watch_1
12303232580973,1.4883357,3.8943188,8.974879,0.021991132,-0.0006108648,-0.020005822,95.53125,67.51875,96.20625,watch_1
12303255657796,1.4883357,3.8943188,8.974879,0.021991132,-0.0006108648,-0.020005822,97.21876,66.450005,97.0875,watch_1
12303265657743,1.4883357,3.8943188,8.974879,0.021991132,-0.0006108648,-0.020005822,95.2125,67.18125,96.787506,watch_1
12303251653941,1.4883357,3.8943188,8.974879,0.02565632,0.0006108648,-0.022449281,95.2125,67.18125,96.787506,watch_1
12303256616702,1.4452649,3.8943188,8.907881,0.02565632,0.0006108648,-0.022449281,95.2125,67.18125,96.787506,watch_1
12303275657691,1.4452649,3.8943188,8.907881,0.02565632,0.0006108648,-0.022449281,95.2125,67.18125,97.21876,watch_1
12303285657639,1.4452649,3.8943188,8.907881,0.02565632,0.0006108648,-0.022449281,95.925,67.012505,95.86875,watch_1
12303275690712,1.4500505,3.9134614,8.860024,0.02565632,0.0006108648,-0.022449281,95.925,67.012505,95.86875,watch_1
12303270727952,1.4500505,3.9134614,8.860024,0.02443459,-0.0030543238,-0.018784093,95.925,67.012505,95.86875,watch_1
12303295657587,1.4500505,3.8608193,8.893523,0.02443459,-0.0030543238,-0.018784093,96.99375,68.55,96.412506,watch_1
12303294763733,1.4500505,3.8608193,8.893523,0.02443459,-0.0030543238,-0.018784093,96.99375,68.55,96.412506,watch_1
12303289800973,1.4500505,3.8608193,8.893523,0.02443459,-0.007941242,-0.011453714,96.28126,69.225006,93.9375,watch_1
12303305657535,1.4500505,3.8608193,8.893523,0.02443459,-0.007941242,-0.011453714,96.28126,69.225006,93.9375,watch_1
12303315657483,1.4500505,3.8608193,8.893523,0.02443459,-0.007941242,-0.011453714,94.3125,67.537506,94.89375,watch_1
12303308874931,1.4500505,3.8608193,8.893523,0.034208428,-0.010384701,-0.009010255,94.3125,67.537506,94.89375,watch_1
12303325657431,1.4500505,3.8608193,8.893523,0.034208428,-0.010384701,-0.009010255,96.037506,68.025,95.775,watch_1
12303313837691,1.4596218,3.8751762,8.936594,0.034208428,-0.010384701,-0.009010255,96.037506,68.025,95.775,watch_1
12303335657379,1.4596218,3.8751762,8.936594,0.034208428,-0.010384701,-0.009010255,95.34375,67.068756,96.65626,watch_1
12303332910712,1.4452649,3.8416767,8.821739,0.034208428,-0.010384701,-0.009010255,95.34375,67.068756,96.65626,watch_1
12303327947952,1.4452649,3.8416767,8.821739,0.018325943,-0.009162972,-0.011453714,95.34375,67.068756,96.65626,watch_1
12303345657327,1.4452649,3.8416767,8.821739,0.018325943,-0.009162972,-0.011453714,94.537506,68.11875,95.30625,watch_1
12303355657275,1.4452649,3.8416767,8.821739,0.018325943,-0.009162972,-0.011453714,95.4375,66.506256,96.58125,watch_1
12303351983733,1.4787644,3.798606,8.812167,0.018325943,-0.009162972,-0.011453714,95.4375,66.506256,96.58125,watch_1
12303347020973,1.4787644,3.798606,8.812167,0.023212861,-0.007941242,-0.012675445,95.4375,66.506256,96.58125,watch_1
12303365657223,1.4787644,3.798606,8.812167,0.023212861,-0.007941242,-0.012675445,96.46876,69.356255,95.11875,watch_1
12303375657171,1.4787644,3.798606,8.812167,0.023212861,-0.007941242,-0.012675445,94.2375,68.08125,95.26875,watch_1
12303371057691,1.4596218,3.8991046,8.855238,0.05497783,-0.0018325944,-0.017562363,94.2375,68.08125,95.26875,watch_1
12303366094931,1.4596218,3.8991046,8.855238,0.05497783,-0.0018325944,-0.017562363,94.2375,68.08125,95.26875,watch_1
12303385657118,1.4596218,3.8991046,8.855238,0.05497783,-0.0018325944,-0.017562363,95.15625,68.34375,94.912506,watch_1
12303395657066,1.4596218,3.8991046,8.855238,0.05497783,-0.0018325944,-0.017562363,93.28125,66.262505,95.34375,watch_1
12303390100712,1.4069797,3.999603,8.989237,0.035430156,-0.0006108648,-0.018784093,93.28125,66.262505,95.34375,watch_1
12303385137952,1.4069797,3.999603,8.989237,0.035430156,-0.0006108648,-0.018784093,93.28125,66.262505,95.34375,watch_1
12303405657014,1.4069797,3.999603,8.989237,0.035430156,-0.0006108648,-0.018784093,95.83125,67.725006,95.0625,watch_1
12303415656962,1.4069797,3.999603,8.989237,0.035430156,-0.0006108648,-0.018784093,96.0,69.168755,94.93125,watch_1
12303409173733,1.4404793,3.8608193,8.888738,-0.023212861,-0.0067195124,-0.021227552,96.0,69.168755,94.93125,watch_1
12303404210973,1.4404793,3.8608193,8.888738,-0.023212861,-0.0067195124,-0.021227552,96.0,69.168755,94.93125,watch_1
12303425656910,1.4404793,3.8608193,8.888738,-0.023212861,-0.0067195124,-0.021227552,96.225006,68.475006,95.606255,watch_1
12303435656858,1.4404793,3.8608193,8.888738,-0.023212861,-0.0067195124,-0.021227552,95.137505,68.3625,93.9,watch_1
12303428247691,1.4261223,3.8273199,8.793025,-0.023212861,-0.0067195124,-0.021227552,95.137505,68.3625,93.9,watch_1
12303445656806,1.4261223,3.8273199,8.793025,0.017104214,-0.0042760535,-0.022449281,95.418755,68.756256,91.125,watch_1
12303423284931,1.4261223,3.8273199,8.793025,0.017104214,-0.0042760535,-0.022449281,95.418755,68.756256,91.125,watch_1
12303447320712,1.3591232,3.946961,8.912666,0.017104214,-0.0042760535,-0.022449281,95.137505,69.46875,95.25,watch_1
12303442357952,1.3591232,3.946961,8.912666,0.06963859,-0.007941242,-0.020005822,95.137505,69.46875,95.25,watch_1
12303455656754,1.3591232,3.946961,8.912666,0.06963859,-0.007941242,-0.020005822,95.137505,69.46875,95.25,watch_1
12303465656702,1.3591232,3.946961,8.912666,0.06963859,-0.007941242,-0.020005822,95.231255,67.481255,96.168755,watch_1
12303475656650,1.3591232,3.946961,8.912666,0.06963859,-0.007941242,-0.020005822,96.262505,66.24375,94.51875,watch_1
12303466394723,1.416551,4.0474596,8.974879,0.037873615,-0.016493348,-0.012675445,96.262505,66.24375,94.51875,watch_1
12303461431962,1.416551,4.0474596,8.974879,0.037873615,-0.016493348,-0.012675445,96.262505,66.24375,94.51875,watch_1
12303485656598,1.416551,4.0474596,8.974879,0.037873615,-0.016493348,-0.012675445,94.8375,68.006256,96.225006,watch_1
12303480504931,1.430908,3.9756749,8.850452,-0.02932151,-0.022601997,-0.005345067,94.8375,68.006256,96.225006,watch_1
12303485467691,1.430908,3.9756749,8.850452,-0.02932151,-0.022601997,-0.005345067,94.8375,68.006256,96.225006,watch_1
12303495656546,1.430908,3.9756749,8.850452,-0.02932151,-0.022601997,-0.005345067,92.9625,68.943756,93.731255,watch_1
12303505656493,1.430908,3.9756749,8.850452,-0.02932151,-0.022601997,-0.005345067,94.3125,67.537506,95.193756,watch_1
12303499578941,1.430908,3.9756749,8.850452,-0.046425723,-0.018936807,-0.004123337,95.512505,70.2375,94.481255,watch_1
12303515656441,1.4548361,3.9086757,8.7164545,-0.046425723,-0.018936807,-0.004123337,95.512505,70.2375,94.481255,watch_1
12303504541702,1.4548361,3.9086757,8.7164545,-0.046425723,-0.018936807,-0.004123337,95.512505,70.2375,94.481255,watch_1
12303525656389,1.4548361,3.9086757,8.7164545,-0.046425723,-0.018936807,-0.004123337,93.975006,67.21875,94.4625,watch_1
12303518651962,1.3830515,3.8464625,8.668598,-0.0024434591,-0.0067195124,-0.004123337,93.975006,67.21875,94.4625,watch_1
12303523614723,1.3830515,3.8464625,8.668598,-0.0024434591,-0.0067195124,-0.004123337,93.975006,67.21875,94.4625,watch_1
12303535656337,1.3830515,3.8464625,8.668598,-0.0024434591,-0.0067195124,-0.004123337,95.49375,68.68125,94.93125,watch_1
12303545656285,1.3830515,3.8464625,8.668598,-0.0024434591,-0.0067195124,-0.004123337,94.912506,69.037506,94.387505,watch_1
12303542657691,1.3399807,3.8033917,8.72124,-0.0024434591,-0.0067195124,-0.004123337,94.912506,69.037506,94.387505,watch_1
12303537694931,1.3399807,3.8033917,8.72124,0.039095346,0.0042760535,-0.004123337,94.51875,69.24375,95.625,watch_1
12303555656233,1.3399807,3.8033917,8.72124,0.039095346,0.0042760535,-0.004123337,94.51875,69.24375,95.625,watch_1
12303565656181,1.3399807,3.8033917,8.72124,0.039095346,0.0042760535,-0.004123337,95.3625,67.350006,96.356255,watch_1
12303561731702,1.3256238,3.8464625,8.821739,0.039095346,0.0042760535,-0.004123337,95.3625,67.350006,96.356255,watch_1
12303556768941,1.3256238,3.8464625,8.821739,0.05253437,0.010384701,-0.0029016077,95.3625,67.350006,96.356255,watch_1
12303585656077,1.3256238,3.8464625,8.821739,0.05253437,0.010384701,-0.0029016077,94.162506,70.03125,96.09376,watch_1
12303575656129,1.3256238,3.8464625,8.821739,0.05253437,0.010384701,-0.0029016077,94.162506,70.03125,96.09376,watch_1
12303575841962,1.3591232,3.970889,8.979665,0.046425723,0.011606431,-0.0016798781,94.950005,67.912506,94.350006,watch_1
12303595656025,1.3591232,3.970889,8.979665,0.046425723,0.011606431,-0.0016798781,94.950005,67.912506,94.350006,watch_1
12303580804723,1.3591232,3.970889,8.979665,0.046425723,0.011606431,-0.0016798781,94.950005,67.912506,94.350006,watch_1
12303605655973,1.3591232,3.970889,8.979665,0.046425723,0.011606431,-0.0016798781,94.443756,67.425,94.350006,watch_1
12303599878733,1.3591232,3.9278183,8.917452,0.010995566,0.005497783,-0.004123337,94.443756,67.425,94.350006,watch_1
12303594915973,1.3591232,3.9278183,8.917452,0.010995566,0.005497783,-0.004123337,94.443756,67.425,94.350006,watch_1
12303615655921,1.3591232,3.9278183,8.917452,0.010995566,0.005497783,-0.004123337,96.168755,69.318756,95.08125,watch_1
12303625655868,1.3591232,3.9278183,8.917452,0.010995566,0.005497783,-0.004123337,93.99375,68.775,94.4625,watch_1
12303618951702,1.4069797,3.8656049,8.826525,0.010995566,0.005497783,-0.004123337,93.99375,68.775,94.4625,watch_1
12303613988941,1.4069797,3.8656049,8.826525,0.021991132,0.0018325944,-0.005345067,93.99375,68.775,94.4625,watch_1
12303635655816,1.4069797,3.8656049,8.826525,0.021991132,0.0018325944,-0.005345067,96.05625,69.75,94.89375,watch_1
12303645655764,1.4213367,3.9517467,8.883952,0.021991132,0.0018325944,-0.005345067,94.96875,68.2125,94.03125,watch_1
12303638025712,1.4213367,3.9517467,8.883952,0.021991132,0.0018325944,-0.005345067,94.96875,68.2125,94.03125,watch_1
12303633062952,1.4213367,3.9517467,8.883952,0.06352994,-0.0006108648,-0.004123337,94.96875,68.2125,94.03125,watch_1
12303655655712,1.4213367,3.9517467,8.883952,0.06352994,-0.0006108648,-0.004123337,95.86875,67.6875,96.65626,watch_1
12303665655660,1.4213367,3.9517467,8.883952,0.07086031,0.0006108648,-0.004123337,94.875,68.287506,96.20625,watch_1
12303652135973,1.4213367,3.9517467,8.883952,0.07086031,0.0006108648,-0.004123337,94.875,68.287506,96.20625,watch_1
12303657098733,1.4691931,4.0331025,8.931808,0.07086031,0.0006108648,-0.004123337,94.875,68.287506,96.20625,watch_1
12303675655608,1.4691931,4.0331025,8.931808,0.07086031,0.0006108648,-0.004123337,95.700005,66.43125,95.45625,watch_1
12303685655556,1.4691931,4.0331025,8.931808,0.07086031,0.0006108648,-0.004123337,96.450005,66.693756,94.350006,watch_1
12303676172691,1.4644074,4.0091743,8.912666,0.07086031,0.0006108648,-0.004123337,96.450005,66.693756,94.350006,watch_1
12303671209931,1.4644074,4.0091743,8.912666,0.07086031,0.0042760535,-0.0065667965,96.450005,66.693756,94.350006,watch_1
12303695655504,1.4644074,4.0091743,8.912666,0.07086031,0.0042760535,-0.0065667965,95.7375,66.693756,96.450005,watch_1
12303695245712,1.3878372,4.004389,8.893523,0.067195125,0.0030543238,-0.009010255,95.7375,66.693756,96.450005,watch_1
12303690282952,1.3878372,4.004389,8.893523,0.067195125,0.0030543238,-0.009010255,95.7375,66.693756,96.450005,watch_1
12303705655452,1.3878372,4.004389,8.893523,0.067195125,0.0030543238,-0.009010255,94.9875,67.0875,93.5625,watch_1
12303715655400,1.3878372,4.004389,8.893523,0.067195125,0.0030543238,-0.009010255,93.46875,68.30625,93.131256,watch_1
12303714288733,1.4739788,4.0761733,8.898309,0.05742129,-0.0018325944,-0.005345067,93.46875,68.30625,93.131256,watch_1
12303709325973,1.4739788,4.0761733,8.898309,0.05742129,-0.0018325944,-0.005345067,94.8375,67.21875,93.1125,watch_1
12303725655348,1.4739788,4.0761733,8.898309,0.05742129,-0.0018325944,-0.005345067,94.8375,67.21875,93.1125,watch_1
12303735655296,1.4739788,4.0761733,8.898309,0.05742129,-0.0018325944,-0.005345067,94.125,67.068756,95.64375,watch_1
12303733362691,1.4883357,4.052245,8.879167,0.05742129,-0.0018325944,-0.005345067,94.125,67.068756,95.64375,watch_1
12303728399931,1.4883357,4.052245,8.879167,0.05497783,-0.0018325944,-0.0016798781,94.125,67.068756,95.64375,watch_1
12303745655243,1.4883357,4.052245,8.879167,0.05497783,-0.0018325944,-0.0016798781,96.168755,67.74375,96.39375,watch_1
12303755655191,1.4883357,4.052245,8.879167,0.05497783,-0.0018325944,-0.0016798781,94.8375,68.006256,95.49375,watch_1
12303752435712,1.4787644,4.061816,8.903095,0.043982264,-0.0006108648,-0.0029016077,94.8375,68.006256,95.49375,watch_1
12303747472952,1.4787644,4.061816,8.903095,0.043982264,-0.0006108648,-0.0029016077,94.8375,68.006256,95.49375,watch_1
12303765655139,1.4787644,4.061816,8.903095,0.043982264,-0.0006108648,-0.0029016077,96.412506,69.09375,94.40625,watch_1
12303766546962,1.4787644,4.061816,8.903095,0.032986697,0.0042760535,-0.007788526,95.5875,68.26875,94.6875,watch_1
12303775655087,1.4787644,4.061816,8.903095,0.032986697,0.0042760535,-0.007788526,95.5875,68.26875,94.6875,watch_1
12303771509723,1.4739788,4.052245,8.922237,0.032986697,0.0042760535,-0.007788526,95.5875,68.26875,94.6875,watch_1
12303785655035,1.4739788,4.052245,8.922237,0.032986697,0.0042760535,-0.007788526,96.037506,68.34375,94.14375,watch_1
12303795654983,1.4117653,4.071388,8.936594,0.032986697,0.0042760535,-0.007788526,96.037506,68.34375,94.14375,watch_1
12303790582691,1.4117653,4.071388,8.936594,0.032986697,0.0042760535,-0.007788526,96.037506,68.34375,94.14375,watch_1
12303785619931,1.4117653,4.071388,8.936594,0.02443459,0.0042760535,-0.010231985,96.037506,68.34375,94.14375,watch_1
12303805654931,1.4117653,4.071388,8.936594,0.02443459,0.0042760535,-0.010231985,96.15,69.01875,96.412506,watch_1
12303815654879,1.4117653,4.071388,8.936594,0.02443459,0.0042760535,-0.010231985,94.818756,66.1125,98.30625,watch_1
12303809656702,1.4356936,4.085745,8.845667,0.02443459,0.0042760535,-0.010231985,94.818756,66.1125,98.30625,watch_1
12303804693941,1.4356936,4.085745,8.845667,0.012217295,0.0006108648,-0.017562363,94.818756,66.1125,98.30625,watch_1
12303825654827,1.4356936,4.085745,8.845667,0.012217295,0.0006108648,-0.017562363,95.5875,68.26875,94.387505,watch_1
12303835654775,1.4356936,4.085745,8.845667,0.012217295,0.0006108648,-0.017562363,94.481255,67.875,93.58125,watch_1
12303828729723,1.430908,4.0905304,8.793025,0.0061086477,-0.0030543238,-0.016340632,94.481255,67.875,93.58125,watch_1
12303823766962,1.430908,4.0905304,8.793025,0.0061086477,-0.0030543238,-0.016340632,94.481255,67.875,93.58125,watch_1
12303845654723,1.430908,4.0905304,8.793025,0.0061086477,-0.0030543238,-0.016340632,95.568756,69.39375,94.856255,watch_1
12303855654671,1.430908,4.0905304,8.793025,0.0061086477,-0.0030543238,-0.016340632,94.350006,68.30625,92.3625,watch_1
12303847803733,1.4644074,4.1814575,8.883952,0.0061086477,-0.0030543238,-0.016340632,94.350006,68.30625,92.3625,watch_1
12303842840973,1.4644074,4.1814575,8.883952,0.0024434591,-0.0018325944,-0.011453714,94.350006,68.30625,92.3625,watch_1
12303865654618,1.4644074,4.1814575,8.883952,0.0024434591,-0.0018325944,-0.011453714,95.175,68.64375,94.4625,watch_1
12303875654566,1.4644074,4.1814575,8.883952,0.0024434591,-0.0018325944,-0.011453714,93.75,68.231255,92.30625,watch_1
12303861883941,1.4644074,4.1814575,8.883952,-0.02687805,-0.0018325944,-0.0029016077,93.75,68.231255,92.30625,watch_1
12303866846702,1.4069797,4.1575294,8.94138,-0.02687805,-0.0018325944,-0.0029016077,93.75,68.231255,92.30625,watch_1
12303885654514,1.4069797,4.1575294,8.94138,-0.02687805,-0.0018325944,-0.0029016077,94.14375,68.9625,93.0,watch_1
12303895654462,1.3686945,3.932604,8.759525,-0.02687805,-0.0018325944,-0.0029016077,93.58125,69.0,94.818756,watch_1
12303880956962,1.3686945,3.932604,8.759525,-0.06108648,-0.010384701,-0.0004581486,93.58125,69.0,94.818756,watch_1
12303885919723,1.3686945,3.932604,8.759525,-0.06108648,-0.010384701,-0.0004581486,93.58125,69.0,94.818756,watch_1
12303905654410,1.3686945,3.932604,8.759525,-0.06108648,-0.010384701,-0.0004581486,94.950005,69.637505,92.7375,watch_1
12303904993733,1.402194,3.8177485,8.654242,-0.0073303776,-0.007941242,-0.0029016077,93.46875,69.9,91.51875,watch_1
12303900030973,1.402194,3.8177485,8.654242,-0.0073303776,-0.007941242,-0.0029016077,93.46875,69.9,91.51875,watch_1
12303915654358,1.402194,3.8177485,8.654242,-0.0073303776,-0.007941242,-0.0029016077,93.46875,69.9,91.51875,watch_1
12303925654306,1.402194,3.8177485,8.654242,-0.0073303776,-0.007941242,-0.0029016077,93.1875,69.84375,92.793755,watch_1
12303924066702,1.4452649,4.01396,8.7882395,-0.0073303776,-0.007941242,-0.0029016077,93.1875,69.84375,92.793755,watch_1
12303919103941,1.4452649,4.01396,8.7882395,0.05497783,0.0030543238,-0.0029016077,95.08125,69.225006,93.525,watch_1
12303935654254,1.4452649,4.01396,8.7882395,0.05497783,0.0030543238,-0.0029016077,95.08125,69.225006,93.525,watch_1
12303945654202,1.4452649,4.01396,8.7882395,0.05497783,0.0030543238,-0.0029016077,92.700005,69.318756,94.106255,watch_1
12303943139723,1.4356936,3.9756749,8.764311,0.05497783,0.0030543238,-0.0029016077,92.700005,69.318756,94.106255,watch_1
12303938176962,1.4356936,3.9756749,8.764311,0.050090913,0.011606431,-0.011453714,92.700005,69.318756,94.106255,watch_1
12303955654150,1.4356936,3.9756749,8.764311,0.050090913,0.011606431,-0.011453714,94.668755,69.412506,94.912506,watch_1
12303965654098,1.4356936,3.9756749,8.764311,0.050090913,0.011606431,-0.011453714,95.15625,68.68125,93.15,watch_1
12303957250973,1.3543376,4.01396,8.807382,0.05497783,0.01527162,-0.0151189035,95.15625,68.68125,93.15,watch_1
12303975654046,1.3543376,4.01396,8.807382,0.05497783,0.01527162,-0.0151189035,95.15625,68.68125,93.15,watch_1
12303962213733,1.3543376,4.01396,8.807382,0.05497783,0.01527162,-0.0151189035,95.15625,68.68125,93.15,watch_1
12303985653993,1.3543376,4.01396,8.807382,0.05497783,0.01527162,-0.0151189035,94.387505,68.25,94.8375,watch_1
12303981286702,1.3782659,4.1718864,8.903095,0.02443459,0.010384701,-0.017562363,94.387505,68.25,94.8375,watch_1
12303976323941,1.3782659,4.1718864,8.903095,0.02443459,0.010384701,-0.017562363,94.387505,68.25,94.8375,watch_1
12303995653941,1.3782659,4.1718864,8.903095,0.02443459,0.010384701,-0.017562363,93.75,67.89375,94.8,watch_1
12304005653889,1.3782659,4.1718864,8.903095,0.02443459,0.010384701,-0.017562363,94.2375,68.4,93.506256,watch_1
12304000360712,1.430908,4.028317,8.807382,0.02443459,0.010384701,-0.017562363,94.2375,68.4,93.506256,watch_1
12303995397952,1.430908,4.028317,8.807382,-0.03054324,-0.0018325944,-0.016340632,94.2375,68.4,93.506256,watch_1
12304015653837,1.430908,4.028317,8.807382,-0.03054324,-0.0018325944,-0.016340632,96.18751,69.61875,94.6125,watch_1
12304025653785,1.430908,4.028317,8.807382,-0.03054324,-0.0018325944,-0.016340632,94.40625,70.14375,92.475006,watch_1
12304019403733,1.4548361,3.9852462,8.745169,-0.008552107,-0.0030543238,-0.0151189035,94.40625,70.14375,92.475006,watch_1
12304014440973,1.4548361,3.9852462,8.745169,-0.008552107,-0.0030543238,-0.0151189035,94.40625,70.14375,92.475006,watch_1
12304035653733,1.4548361,3.9852462,8.745169,-0.008552107,-0.0030543238,-0.0151189035,94.425,67.125,95.100006,watch_1
12304045653681,1.4548361,3.9852462,8.745169,0.028099779,0.010384701,-0.012675445,94.5,69.28125,94.03125,watch_1
12304033513941,1.4548361,3.9852462,8.745169,0.028099779,0.010384701,-0.012675445,94.5,69.28125,94.03125,watch_1
12304038476702,1.4069797,4.1144586,8.898309,0.028099779,0.010384701,-0.012675445,94.5,69.28125,94.03125,watch_1
12304055653629,1.4069797,4.1144586,8.898309,0.028099779,0.010384701,-0.012675445,95.193756,69.1125,92.8125,watch_1
12304065653577,1.4069797,4.1144586,8.898309,0.028099779,0.010384701,-0.012675445,95.006256,70.068756,92.981255,watch_1
12304052587952,1.3926228,4.0761733,8.94138,0.0097738365,0.0067195124,-0.012675445,95.006256,70.068756,92.981255,watch_1
12304057550712,1.3926228,4.0761733,8.94138,0.0097738365,0.0067195124,-0.012675445,95.006256,70.068756,92.981255,watch_1
12304075653525,1.3926228,4.0761733,8.94138,0.0097738365,0.0067195124,-0.012675445,94.51875,69.5625,93.99375,watch_1
12304085653473,1.3926228,4.0761733,8.94138,0.0097738365,0.0067195124,-0.012675445,94.875,69.09375,92.0625,watch_1
12304076623733,1.402194,4.061816,8.860024,-0.0097738365,-0.0018325944,-0.011453714,94.875,69.09375,92.0625,watch_1
12304071660973,1.402194,4.061816,8.860024,-0.0097738365,-0.0018325944,-0.011453714,94.875,69.09375,92.0625,watch_1
12304095653421,1.402194,4.061816,8.860024,-0.0097738365,-0.0018325944,-0.011453714,92.71875,66.637505,94.51875,watch_1
12304095697691,1.4356936,4.0905304,8.83131,-0.0097738365,-0.0018325944,-0.011453714,92.71875,66.637505,94.51875,watch_1
12304090734931,1.4356936,4.0905304,8.83131,0.012217295,-0.005497783,-0.007788526,92.71875,66.637505,94.51875,watch_1
12304105653368,1.4356936,4.0905304,8.83131,0.012217295,-0.005497783,-0.007788526,94.537506,68.45625,93.24375,watch_1
12304115653316,1.4356936,4.0905304,8.83131,0.012217295,-0.005497783,-0.007788526,94.575005,68.4,95.287506,watch_1
12304109807952,1.4356936,4.0905304,8.83131,0.02443459,-0.007941242,-0.005345067,94.575005,68.4,95.287506,watch_1
12304125653264,1.4356936,4.0905304,8.83131,0.02443459,-0.007941242,-0.005345067,95.175,67.21875,95.175,watch_1
12304114770712,1.4404793,4.1431723,8.874381,0.02443459,-0.007941242,-0.005345067,95.175,67.21875,95.175,watch_1
12304135653212,1.4404793,4.1431723,8.874381,0.010995566,-0.010384701,-0.0004581486,95.175,67.21875,95.175,watch_1
12304128881962,1.4404793,4.1431723,8.874381,0.010995566,-0.010384701,-0.0004581486,95.175,67.21875,95.175,watch_1
12304145653160,1.4404793,4.1431723,8.874381,0.010995566,-0.010384701,-0.0004581486,93.9,68.08125,93.4875,watch_1
12304133844723,1.402194,4.1288157,8.826525,0.010995566,-0.010384701,-0.0004581486,93.9,68.08125,93.4875,watch_1
12304155653108,1.402194,4.1288157,8.826525,0.010995566,-0.010384701,-0.0004581486,95.3625,67.36875,95.625,watch_1
12304152917691,1.4356936,4.0474596,8.749954,0.010995566,-0.010384701,-0.0004581486,95.3625,67.36875,95.625,watch_1
12304147954931,1.4356936,4.0474596,8.749954,0.0012217296,-0.010384701,0.0019853106,95.793755,67.14375,95.981255,watch_1
12304165653056,1.4356936,4.0474596,8.749954,0.0012217296,-0.010384701,0.0019853106,95.793755,67.14375,95.981255,watch_1
12304175653004,1.4356936,4.0474596,8.749954,0.0012217296,-0.010384701,0.0019853106,95.7375,63.693752,98.06251,watch_1
12304171960712,1.416551,4.01396,8.769096,0.0048869182,-0.0030543238,-0.0016798781,95.7375,63.693752,98.06251,watch_1
12304166997952,1.416551,4.01396,8.769096,0.0048869182,-0.0030543238,-0.0016798781,95.7375,63.693752,98.06251,watch_1
12304185652952,1.416551,4.01396,8.769096,0.0048869182,-0.0030543238,-0.0016798781,95.887505,65.137505,97.65,watch_1
12304195652900,1.416551,4.01396,8.769096,0.0048869182,-0.0030543238,-0.0016798781,95.981255,69.1875,93.918755,watch_1
12304186071962,1.3782659,4.052245,8.816954,0.008552107,0.0006108648,-0.007788526,95.981255,69.1875,93.918755,watch_1
12304191034723,1.3782659,4.052245,8.816954,0.008552107,0.0006108648,-0.007788526,95.981255,69.1875,93.918755,watch_1
12304205652848,1.3782659,4.052245,8.816954,0.008552107,0.0006108648,-0.007788526,94.51875,69.5625,93.7125,watch_1
12304215652796,1.3782659,4.052245,8.816954,0.008552107,0.0006108648,-0.007788526,94.93125,67.93125,93.61875,watch_1
12304210107691,1.3926228,4.0570307,8.797811,-0.0048869182,0.0018325944,-0.0065667965,94.93125,67.93125,93.61875,watch_1
12304205144931,1.3926228,4.0570307,8.797811,-0.0048869182,0.0018325944,-0.0065667965,94.93125,67.93125,93.61875,watch_1
12304225652743,1.3926228,4.0570307,8.797811,-0.0048869182,0.0018325944,-0.0065667965,93.918755,66.95625,93.46875,watch_1
12304235652691,1.3926228,4.0570307,8.797811,-0.0048869182,0.0018325944,-0.0065667965,93.1875,68.25,94.40625,watch_1
12304229181702,1.3926228,4.061816,8.807382,0.0024434591,0.0030543238,-0.004123337,93.1875,68.25,94.40625,watch_1
12304224218941,1.3926228,4.061816,8.807382,0.0024434591,0.0030543238,-0.004123337,93.1875,68.25,94.40625,watch_1
12304245652639,1.3926228,4.061816,8.807382,0.0024434591,0.0030543238,-0.004123337,95.3625,67.36875,95.90625,watch_1
12304255652587,1.3926228,4.061816,8.807382,0.0024434591,0.0030543238,-0.004123337,94.18125,64.33125,98.4,watch_1
12304243291962,1.3543376,4.1671004,8.860024,0.0073303776,-0.005497783,0.008093959,94.18125,64.33125,98.4,watch_1
12304248254723,1.3543376,4.1671004,8.860024,0.0073303776,-0.005497783,0.008093959,94.18125,64.33125,98.4,watch_1
12304265652535,1.3543376,4.1671004,8.860024,0.0073303776,-0.005497783,0.008093959,95.08125,67.631256,95.26875,watch_1
12304275652483,1.3543376,4.1671004,8.860024,0.0073303776,-0.005497783,0.008093959,94.3125,68.793755,95.2125,watch_1
12304267328733,1.4213367,4.1001015,8.797811,-0.014660755,-0.020158539,0.017867794,94.3125,68.793755,95.2125,watch_1
12304262365973,1.4213367,4.1001015,8.797811,-0.014660755,-0.020158539,0.017867794,94.3125,68.793755,95.2125,watch_1
12304285652431,1.4213367,4.1001015,8.797811,-0.014660755,-0.020158539,0.017867794,93.05625,65.850006,93.1875,watch_1
12304295652379,1.4213367,4.1001015,8.797811,-0.014660755,-0.020158539,0.017867794,95.45625,66.95625,95.8125,watch_1
12304281438941,1.416551,4.0235314,8.764311,-0.03054324,-0.025045456,0.026419902,95.45625,66.95625,95.8125,watch_1
12304286401702,1.416551,4.0235314,8.764311,-0.03054324,-0.025045456,0.026419902,95.45625,66.95625,95.8125,watch_1
12304305652327,1.416551,4.0235314,8.764311,-0.03054324,-0.025045456,0.026419902,94.275,66.918755,96.56251,watch_1
12304315652275,1.416551,4.0235314,8.764311,-0.03054324,-0.025045456,0.026419902,95.568756,68.30625,93.075005,watch_1
12304305475712,1.3782659,4.042674,8.845667,-0.03054324,-0.025045456,0.026419902,95.568756,68.30625,93.075005,watch_1
12304300512952,1.3782659,4.042674,8.845667,-0.042760536,-0.026267186,0.028863361,95.568756,68.30625,93.075005,watch_1
12304325652223,1.3782659,4.042674,8.845667,-0.042760536,-0.026267186,0.028863361,95.381256,67.668755,95.30625,watch_1
12304319555973,1.3782659,4.042674,8.845667,-0.07941242,-0.04092794,0.037415467,94.875,67.18125,94.70625,watch_1
12304335652171,1.3782659,4.042674,8.845667,-0.07941242,-0.04092794,0.037415467,94.875,67.18125,94.70625,watch_1
12304324518733,1.3447664,4.061816,8.874381,-0.07941242,-0.04092794,0.037415467,94.875,67.18125,94.70625,watch_1
12304345652118,1.3447664,4.061816,8.874381,-0.07941242,-0.04092794,0.037415467,94.875,67.18125,94.70625,watch_1
12304343591702,1.402194,4.0570307,8.773883,-0.118507765,-0.064140804,0.06185006,94.875,67.18125,94.70625,watch_1
12304338628941,1.402194,4.0570307,8.773883,-0.118507765,-0.064140804,0.06185006,94.875,67.18125,94.70625,watch_1
12304355652066,1.402194,4.0570307,8.773883,-0.118507765,-0.064140804,0.06185006,93.43125,67.725006,93.9,watch_1
12304365652014,1.402194,4.0570307,8.773883,-0.118507765,-0.064140804,0.06185006,95.0625,67.65,93.95625,watch_1
12304362665712,1.5074782,3.8464625,8.611171,-0.11362085,-0.077579826,0.080176,94.725006,69.84375,95.15625,watch_1
12304357702952,1.5074782,3.8464625,8.611171,-0.11362085,-0.077579826,0.080176,94.725006,69.84375,95.15625,watch_1
12304375651962,1.5074782,3.8464625,8.611171,-0.11362085,-0.077579826,0.080176,94.725006,69.84375,95.15625,watch_1
12304385651910,1.5074782,3.8464625,8.611171,-0.11362085,-0.077579826,0.080176,94.481255,69.28125,93.731255,watch_1
12304381738733,1.4979069,3.8368912,8.620742,-0.11362085,-0.077579826,0.080176,94.481255,69.28125,93.731255,watch_1
12304376775973,1.4979069,3.8368912,8.620742,-0.062308207,-0.08002329,0.09117157,94.481255,69.28125,93.731255,watch_1
12304395651858,1.4979069,3.8368912,8.620742,-0.062308207,-0.08002329,0.09117157,94.05,69.356255,93.825005,watch_1
12304405651806,1.4979069,3.8368912,8.620742,-0.062308207,-0.08002329,0.09117157,93.43125,69.46875,92.137505,watch_1
12304400812691,1.4691931,3.9038901,8.83131,-0.062308207,-0.08002329,0.09117157,93.43125,69.46875,92.137505,watch_1
12304395849931,1.4691931,3.9038901,8.83131,-0.062308207,-0.077579826,0.08994984,93.43125,69.46875,92.137505,watch_1
12304415651754,1.4691931,3.9038901,8.83131,-0.062308207,-0.077579826,0.08994984,93.65625,70.03125,92.981255,watch_1
12304425651702,1.4691931,3.9038901,8.83131,-0.062308207,-0.077579826,0.08994984,93.24375,69.0,92.45625,watch_1
12304419885712,1.5122639,3.9230328,8.917452,-0.062308207,-0.077579826,0.08994984,93.24375,69.0,92.45625,watch_1
12304414922952,1.5122639,3.9230328,8.917452,-0.12583815,-0.08124501,0.08261946,93.24375,69.0,92.45625,watch_1
12304435651650,1.5122639,3.9230328,8.917452,-0.12583815,-0.08124501,0.08261946,94.350006,69.39375,93.84375,watch_1
12304445651598,1.5122639,3.9230328,8.917452,-0.12583815,-0.08124501,0.08261946,93.825005,68.943756,91.950005,watch_1
12304433996962,1.6271194,3.8416767,8.764311,-0.16004658,-0.076358095,0.06429352,93.825005,68.943756,91.950005,watch_1
12304438959723,1.6271194,3.8416767,8.764311,-0.16004658,-0.076358095,0.06429352,93.825005,68.943756,91.950005,watch_1
12304455651546,1.6271194,3.8416767,8.764311,-0.16004658,-0.076358095,0.06429352,95.08125,69.225006,93.525,watch_1
12304465651493,1.6271194,3.8416767,8.764311,-0.16004658,-0.076358095,0.06429352,94.18125,69.24375,93.262505,watch_1
12304458032691,1.6701902,3.7746778,8.706883,-0.16004658,-0.076358095,0.06429352,94.18125,69.24375,93.262505,watch_1
12304453069931,1.6701902,3.7746778,8.706883,-0.08918626,-0.049480047,0.041080657,94.18125,69.24375,93.262505,watch_1
12304475651441,1.6701902,3.7746778,8.706883,-0.08918626,-0.049480047,0.041080657,94.481255,69.28125,93.731255,watch_1
12304477075712,1.5601203,3.8895333,8.965308,-0.08918626,-0.049480047,0.041080657,93.543755,70.14375,94.125,watch_1
12304485651389,1.5601203,3.8895333,8.965308,-0.08918626,-0.049480047,0.041080657,93.543755,70.14375,94.125,watch_1
12304472112952,1.5601203,3.8895333,8.965308,0.014660755,-0.020158539,0.020311253,93.543755,70.14375,94.125,watch_1
12304495651337,1.5601203,3.8895333,8.965308,0.014660755,-0.020158539,0.020311253,94.631256,69.15,94.200005,watch_1
12304505651285,1.5601203,3.8895333,8.965308,0.014660755,-0.020158539,0.020311253,93.600006,70.875,92.756256,watch_1
12304491186962,1.5744773,4.1144586,9.12802,0.019547673,-0.011606431,0.0056504994,94.387505,70.950005,94.14375,watch_1
12304515651233,1.5744773,4.1144586,9.12802,0.019547673,-0.011606431,0.0056504994,94.387505,70.950005,94.14375,watch_1
12304496149723,1.5744773,4.1144586,9.12802,0.019547673,-0.011606431,0.0056504994,94.387505,70.950005,94.14375,watch_1
12304515222691,1.5601203,4.085745,9.142377,-0.05864302,-0.011606431,0.0044287695,94.387505,70.950005,94.14375,watch_1
12304510259931,1.5601203,4.085745,9.142377,-0.05864302,-0.011606431,0.0044287695,94.387505,70.950005,94.14375,watch_1
12304525651181,1.5601203,4.085745,9.142377,-0.05864302,-0.011606431,0.0044287695,94.443756,69.0,93.318756,watch_1
12304535651129,1.5601203,4.085745,9.142377,-0.05864302,-0.011606431,0.0044287695,95.231255,69.075005,94.425,watch_1
12304529333941,1.5601203,4.085745,9.142377,-0.092851445,-0.020158539,0.0056504994,95.231255,69.075005,94.425,watch_1
12304545651077,1.5744773,3.9948175,9.032308,-0.092851445,-0.020158539,0.0056504994,95.475006,70.275,93.168755,watch_1
12304555651025,1.5744773,3.9948175,9.032308,-0.092851445,-0.020158539,0.0056504994,95.475006,70.275,93.168755,watch_1
12304534296702,1.5744773,3.9948175,9.032308,-0.092851445,-0.020158539,0.0056504994,95.475006,70.275,93.168755,watch_1
12304553369723,1.6319051,3.879962,8.845667,-0.03176497,-0.016493348,0.010537418,95.475006,70.275,93.168755,watch_1
12304548406962,1.6319051,3.879962,8.845667,-0.03176497,-0.016493348,0.010537418,95.475006,70.275,93.168755,watch_1
12304565650973,1.6319051,3.879962,8.845667,-0.03176497,-0.016493348,0.010537418,95.287506,71.25,92.756256,watch_1
12304575650921,1.6319051,3.879962,8.845667,-0.03176497,-0.016493348,0.010537418,95.287506,71.25,92.756256,watch_1
12304567479931,1.6319051,3.879962,8.845667,0.0537561,-0.009162972,0.0129808765,95.287506,71.25,92.756256,watch_1
12304572442691,1.5984055,3.9804604,8.917452,0.0537561,-0.009162972,0.0129808765,95.287506,71.25,92.756256,watch_1
12304585650868,1.5984055,3.9804604,8.917452,0.0537561,-0.009162972,0.0129808765,94.668755,71.025,92.850006,watch_1
12304595650816,1.5984055,3.9804604,8.917452,0.0537561,-0.009162972,0.0129808765,95.475006,69.95625,94.21875,watch_1
12304586553941,1.5457634,4.104887,9.05145,0.045203995,-0.011606431,0.016646065,93.037506,68.4,92.925,watch_1
12304605650764,1.5457634,4.104887,9.05145,0.045203995,-0.011606431,0.016646065,93.037506,68.4,92.925,watch_1
12304591516702,1.5457634,4.104887,9.05145,0.045203995,-0.011606431,0.016646065,93.037506,68.4,92.925,watch_1
12304615650712,1.5457634,4.104887,9.05145,0.045203995,-0.011606431,0.016646065,94.106255,70.106255,92.7375,watch_1
12304610589723,1.5553347,4.004389,9.0131645,-0.047647454,-0.022601997,0.020311253,94.106255,70.106255,92.7375,watch_1
12304625650660,1.5553347,4.004389,9.0131645,-0.047647454,-0.022601997,0.020311253,93.43125,70.2375,94.96875,watch_1
12304605626962,1.5553347,4.004389,9.0131645,-0.047647454,-0.022601997,0.020311253,93.43125,70.2375,94.96875,watch_1
12304635650608,1.5553347,4.004389,9.0131645,-0.047647454,-0.022601997,0.020311253,93.4875,71.30625,92.55,watch_1
12304629632691,1.5888343,3.7890346,8.816954,-0.091629714,-0.027488915,0.019089524,93.4875,71.30625,92.55,watch_1
12304624669931,1.5888343,3.7890346,8.816954,-0.091629714,-0.027488915,0.019089524,93.4875,71.30625,92.55,watch_1
12304645650556,1.5888343,3.7890346,8.816954,-0.091629714,-0.027488915,0.019089524,94.4625,68.981255,94.05,watch_1
12304655650504,1.5888343,3.7890346,8.816954,-0.091629714,-0.027488915,0.019089524,94.78125,70.443756,94.0875,watch_1
12304648706702,1.5936198,3.6837504,8.72124,-0.091629714,-0.027488915,0.019089524,94.78125,70.443756,94.0875,watch_1
12304643743941,1.5936198,3.6837504,8.72124,-0.03176497,-0.018936807,0.016646065,92.325005,69.84375,94.162506,watch_1
12304665650452,1.5936198,3.6837504,8.72124,-0.03176497,-0.018936807,0.016646065,92.325005,69.84375,94.162506,watch_1
12304675650400,1.5936198,3.6837504,8.72124,-0.03176497,-0.018936807,0.016646065,94.818756,70.875,94.05,watch_1
12304667779723,1.6223338,3.7507496,8.735598,0.05497783,-0.005497783,0.008093959,94.818756,70.875,94.05,watch_1
12304662816962,1.6223338,3.7507496,8.735598,0.05497783,-0.005497783,0.008093959,94.818756,70.875,94.05,watch_1
12304685650348,1.6223338,3.7507496,8.735598,0.05497783,-0.005497783,0.008093959,94.631256,70.575005,93.61875,watch_1
12304695650296,1.6223338,3.7507496,8.735598,0.05497783,-0.005497783,0.008093959,94.725006,71.26875,94.575005,watch_1
12304681890973,1.6223338,3.7507496,8.735598,0.068416856,0.007941242,-0.0016798781,94.725006,71.26875,94.575005,watch_1
12304686853733,1.6271194,3.8751762,8.888738,0.068416856,0.007941242,-0.0016798781,94.33125,71.793755,94.200005,watch_1
12304705650243,1.6271194,3.8751762,8.888738,0.068416856,0.007941242,-0.0016798781,92.83125,70.8,92.381256,watch_1
12304715650191,1.6271194,3.8751762,8.888738,0.068416856,0.007941242,-0.0016798781,92.83125,70.8,92.381256,watch_1
12304705926702,1.5936198,3.9278183,8.974879,0.0,0.01282816,-0.009010255,92.83125,70.8,92.381256,watch_1
12304700963941,1.5936198,3.9278183,8.974879,0.0,0.01282816,-0.009010255,92.83125,70.8,92.381256,watch_1
12304725650139,1.5936198,3.9278183,8.974879,0.0,0.01282816,-0.009010255,93.39375,70.293755,92.925,watch_1
12304725000712,1.5936198,3.8560338,8.845667,0.0,0.01282816,-0.009010255,93.39375,70.293755,92.925,watch_1
12304720037952,1.5936198,3.8560338,8.845667,-0.05864302,0.011606431,-0.004123337,93.39375,70.293755,92.925,watch_1
12304735650087,1.5936198,3.8560338,8.845667,-0.05864302,0.011606431,-0.004123337,95.100006,69.1875,94.96875,watch_1
12304745650035,1.5936198,3.8560338,8.845667,-0.05864302,0.011606431,-0.004123337,93.3375,68.4375,92.9625,watch_1
12304739110973,1.5696917,3.7507496,8.816954,-0.050090913,0.009162972,0.0019853106,93.8625,68.887505,94.725006,watch_1
12304755649983,1.5696917,3.7507496,8.816954,-0.050090913,0.009162972,0.0019853106,93.8625,68.887505,94.725006,watch_1
12304744073733,1.5696917,3.7507496,8.816954,-0.050090913,0.009162972,0.0019853106,93.8625,68.887505,94.725006,watch_1
12304765649931,1.5696917,3.7507496,8.816954,-0.050090913,0.009162972,0.0019853106,96.4875,69.675,94.068756,watch_1
12304763147691,1.6079768,3.8129628,8.903095,-0.0012217296,0.0042760535,0.008093959,96.4875,69.675,94.068756,watch_1
12304758184931,1.6079768,3.8129628,8.903095,-0.0012217296,0.0042760535,0.008093959,96.4875,69.675,94.068756,watch_1
12304775649879,1.6079768,3.8129628,8.903095,-0.0012217296,0.0042760535,0.008093959,94.012505,69.075005,93.84375,watch_1
12304785649827,1.6079768,3.8129628,8.903095,-0.0012217296,0.0042760535,0.008093959,94.21875,71.11875,92.3625,watch_1
12304782190712,1.6079768,3.8273199,8.912666,0.018325943,-0.0018325944,0.011759147,94.537506,69.5625,94.293755,watch_1
12304795649775,1.6079768,3.8273199,8.912666,0.018325943,-0.0018325944,0.011759147,94.537506,69.5625,94.293755,watch_1
12304777227952,1.6079768,3.8273199,8.912666,0.018325943,-0.0018325944,0.011759147,94.537506,69.5625,94.293755,watch_1
12304805649723,1.6079768,3.8273199,8.912666,0.018325943,-0.0018325944,0.011759147,93.037506,68.4,92.925,watch_1
12304801263733,1.5984055,3.8464625,8.826525,-0.0036651888,-0.0067195124,0.010537418,93.037506,68.4,92.925,watch_1
12304796300973,1.5984055,3.8464625,8.826525,-0.0036651888,-0.0067195124,0.010537418,93.037506,68.4,92.925,watch_1
12304815649671,1.5984055,3.8464625,8.826525,-0.0036651888,-0.0067195124,0.010537418,93.412506,68.83125,94.668755,watch_1
12304825649618,1.5984055,3.8464625,8.826525,-0.0036651888,-0.0067195124,0.010537418,94.950005,69.65625,92.006256,watch_1
12304820337691,1.5888343,3.918247,8.893523,-0.0061086477,-0.010384701,0.014202606,94.950005,69.65625,92.006256,watch_1
12304815374931,1.5888343,3.918247,8.893523,-0.0061086477,-0.010384701,0.014202606,94.950005,69.65625,92.006256,watch_1
12304835649566,1.5888343,3.918247,8.893523,-0.0061086477,-0.010384701,0.014202606,95.662506,69.318756,92.700005,watch_1
12304845649514,1.5888343,3.918247,8.893523,-0.0061086477,-0.010384701,0.014202606,92.025,68.700005,93.075005,watch_1
12304834447952,1.5888343,3.918247,8.893523,-0.03054324,-0.01282816,0.016646065,92.025,68.700005,93.075005,watch_1
12304839410712,1.6462619,3.932604,8.922237,-0.03054324,-0.01282816,0.016646065,93.75,70.256256,96.01875,watch_1
12304855649462,1.6462619,3.932604,8.922237,-0.03054324,-0.01282816,0.016646065,93.75,70.256256,96.01875,watch_1
12304865649410,1.6510476,3.8129628,8.807382,-0.03054324,-0.01282816,0.016646065,94.59375,70.275,93.9375,watch_1
12304858484723,1.6510476,3.8129628,8.807382,-0.03054324,-0.01282816,0.016646065,94.59375,70.275,93.9375,watch_1
12304875649358,1.6510476,3.8129628,8.807382,-0.0537561,-0.011606431,0.017867794,94.40625,70.162506,92.043755,watch_1
12304853521962,1.6510476,3.8129628,8.807382,-0.0537561,-0.011606431,0.017867794,94.40625,70.162506,92.043755,watch_1
12304885649306,1.6510476,3.8129628,8.807382,-0.0537561,-0.011606431,0.017867794,93.262505,68.981255,94.05,watch_1
12304872594931,1.5984055,3.8177485,8.879167,-0.032986697,-0.007941242,0.016646065,93.262505,68.981255,94.05,watch_1
12304877557691,1.5984055,3.8177485,8.879167,-0.032986697,-0.007941242,0.016646065,93.262505,68.981255,94.05,watch_1
12304895649254,1.5984055,3.8177485,8.879167,-0.032986697,-0.007941242,0.016646065,93.76875,70.70625,94.96875,watch_1
12304896631702,1.6366907,3.822534,8.950952,-0.032986697,-0.007941242,0.016646065,93.99375,70.200005,93.58125,watch_1
12304905649202,1.6366907,3.822534,8.950952,-0.032986697,-0.007941242,0.016646065,93.99375,70.200005,93.58125,watch_1
12304891668941,1.6366907,3.822534,8.950952,-0.019547673,-0.007941242,0.010537418,93.975006,70.21875,93.15,watch_1
12304915649150,1.6366907,3.822534,8.950952,-0.019547673,-0.007941242,0.010537418,93.975006,70.21875,93.15,watch_1
12304915704723,1.6606189,3.8129628,8.922237,-0.015882485,-0.0067195124,0.0019853106,93.412506,70.256256,94.2375,watch_1
12304910741962,1.6606189,3.8129628,8.922237,-0.015882485,-0.0067195124,0.0019853106,93.412506,70.256256,94.2375,watch_1
12304925649098,1.6606189,3.8129628,8.922237,-0.015882485,-0.0067195124,0.0019853106,93.412506,70.256256,94.2375,watch_1
12304935649046,1.6606189,3.8129628,8.922237,-0.015882485,-0.0067195124,0.0019853106,93.412506,70.256256,94.2375,watch_1
12304934747691,1.6319051,3.822534,8.879167,0.010995566,-0.0006108648,-0.005345067,93.412506,70.256256,94.2375,watch_1
12304929784931,1.6319051,3.822534,8.879167,0.010995566,-0.0006108648,-0.005345067,93.3375,69.693756,93.7125,watch_1
12304955648941,1.6319051,3.822534,8.879167,0.010995566,-0.0006108648,-0.005345067,94.575005,68.4,95.287506,watch_1
12304948858941,1.6031911,3.9900317,8.931808,0.017104214,-0.0018325944,-0.0029016077,96.37501,68.325005,96.80625,watch_1
12304953821702,1.6031911,3.9900317,8.931808,0.017104214,-0.0018325944,-0.0029016077,96.37501,68.325005,96.80625,watch_1
12304975648837,1.6031911,3.9900317,8.931808,0.017104214,-0.0018325944,-0.0029016077,96.37501,68.325005,96.80625,watch_1
12304945648993,1.6031911,3.9900317,8.931808,0.017104214,-0.0018325944,-0.0029016077,96.37501,68.325005,96.80625,watch_1
12304965648889,1.6031911,3.9900317,8.931808,0.017104214,-0.0018325944,-0.0029016077,96.37501,68.325005,96.80625,watch_1
12304972894723,1.6319051,3.9230328,8.893523,0.017104214,-0.0018325944,-0.0029016077,96.37501,68.325005,96.80625,watch_1
12304967931962,1.6319051,3.9230328,8.893523,-0.03054324,-0.011606431,0.0056504994,96.37501,68.325005,96.80625,watch_1
12304985648785,1.6319051,3.9230328,8.893523,-0.03054324,-0.011606431,0.0056504994,94.78125,66.918755,99.675,watch_1
12304995648733,1.6319051,3.9230328,8.893523,-0.03054324,-0.011606431,0.0056504994,94.18125,65.4,100.762505,watch_1
12304991968733,1.6701902,3.769892,8.83131,-0.05253437,-0.0140498895,0.014202606,94.18125,65.4,100.762505,watch_1
12304987005973,1.6701902,3.769892,8.83131,-0.05253437,-0.0140498895,0.014202606,94.18125,65.4,100.762505,watch_1
12305005648681,1.6701902,3.769892,8.83131,-0.05253437,-0.0140498895,0.014202606,93.318756,67.818756,95.34375,watch_1
12305015648629,1.6701902,3.769892,8.83131,-0.05253437,-0.0140498895,0.014202606,94.18125,69.24375,93.262505,watch_1
12305011041702,1.6271194,3.7220356,8.816954,-0.036651887,-0.010384701,0.017867794,94.18125,69.24375,93.262505,watch_1
12305006078941,1.6271194,3.7220356,8.816954,-0.036651887,-0.010384701,0.017867794,94.18125,69.24375,93.262505,watch_1
12305025648577,1.6271194,3.7220356,8.816954,-0.036651887,-0.010384701,0.017867794,95.700005,70.70625,94.03125,watch_1
12305035648525,1.6271194,3.7220356,8.816954,-0.036651887,-0.010384701,0.017867794,95.606255,71.26875,93.80625,watch_1
12305030115712,1.6223338,3.7794633,8.888738,-0.036651887,-0.010384701,0.017867794,95.606255,71.26875,93.80625,watch_1
12305025152952,1.6223338,3.7794633,8.888738,-0.017104214,-0.009162972,0.017867794,95.606255,71.26875,93.80625,watch_1
12305045648473,1.6223338,3.7794633,8.888738,-0.017104214,-0.009162972,0.017867794,94.275,69.95625,94.21875,watch_1
12305055648421,1.6223338,3.7794633,8.888738,-0.017104214,-0.009162972,0.017867794,94.950005,69.3375,93.787506,watch_1
12305049188733,1.6271194,3.8464625,9.0131645,-0.017104214,-0.01282816,0.016646065,94.950005,69.3375,93.787506,watch_1
12305044225973,1.6271194,3.8464625,9.0131645,-0.017104214,-0.01282816,0.016646065,94.950005,69.3375,93.787506,watch_1
12305065648368,1.6271194,3.8464625,9.0131645,-0.017104214,-0.01282816,0.016646065,93.168755,69.375,94.875,watch_1
12305075648316,1.6271194,3.8464625,9.0131645,-0.017104214,-0.01282816,0.016646065,95.0625,70.33125,94.275,watch_1
12305063299931,1.6654046,3.8464625,8.994022,-0.035430156,-0.017715078,0.0129808765,95.0625,70.33125,94.275,watch_1
12305068262691,1.6654046,3.8464625,8.994022,-0.035430156,-0.017715078,0.0129808765,95.0625,70.33125,94.275,watch_1
12305085648264,1.6654046,3.8464625,8.994022,-0.035430156,-0.017715078,0.0129808765,93.46875,71.006256,92.568756,watch_1
12305095648212,1.6654046,3.8464625,8.994022,-0.035430156,-0.017715078,0.0129808765,94.293755,71.3625,94.668755,watch_1
12305087305712,1.6606189,3.769892,8.869596,-0.035430156,-0.017715078,0.0129808765,94.293755,71.3625,94.668755,watch_1
12305082342952,1.6606189,3.769892,8.869596,-0.042760536,-0.020158539,0.010537418,94.293755,71.3625,94.668755,watch_1
12305105648160,1.6606189,3.769892,8.869596,-0.042760536,-0.020158539,0.010537418,94.4625,70.0875,95.100006,watch_1
12305101415973,1.6606189,3.769892,8.869596,-0.034208428,-0.01527162,0.008093959,94.0875,70.912506,94.106255,watch_1
12305115648108,1.6606189,3.769892,8.869596,-0.034208428,-0.01527162,0.008093959,94.0875,70.912506,94.106255,watch_1
12305106378733,1.7036897,3.798606,8.86481,-0.034208428,-0.01527162,0.008093959,94.0875,70.912506,94.106255,watch_1
12305125648056,1.7036897,3.798606,8.86481,-0.034208428,-0.01527162,0.008093959,94.256256,71.381256,92.925,watch_1
12305135648004,1.6701902,3.8273199,8.965308,-0.034208428,-0.011606431,0.009315688,93.356255,69.675,94.725006,watch_1
12305120489931,1.6701902,3.8273199,8.965308,-0.034208428,-0.011606431,0.009315688,93.356255,69.675,94.725006,watch_1
12305125452691,1.6701902,3.8273199,8.965308,-0.034208428,-0.011606431,0.009315688,93.356255,69.675,94.725006,watch_1
12305145647952,1.6701902,3.8273199,8.965308,-0.034208428,-0.011606431,0.009315688,93.675,69.693756,95.775,watch_1
12305144525712,1.6319051,3.6981075,8.955737,-0.034208428,-0.011606431,0.009315688,93.675,69.693756,95.775,watch_1
12305139562952,1.6319051,3.6981075,8.955737,-0.028099779,-0.0140498895,0.011759147,93.675,69.693756,95.775,watch_1
12305155647900,1.6319051,3.6981075,8.955737,-0.028099779,-0.0140498895,0.011759147,94.481255,68.9625,95.662506,watch_1
12305165647848,1.6319051,3.6981075,8.955737,-0.028099779,-0.0140498895,0.011759147,94.481255,68.9625,95.662506,watch_1
12305158635973,1.6319051,3.6981075,8.955737,0.036651887,-0.01527162,0.0129808765,94.481255,68.9625,95.662506,watch_1
12305175647796,1.6319051,3.6981075,8.955737,0.036651887,-0.01527162,0.0129808765,94.275,70.275,92.5875,watch_1
12305163598733,1.6606189,3.6789649,8.826525,0.036651887,-0.01527162,0.0129808765,94.275,70.275,92.5875,watch_1
12305185647743,1.6606189,3.6789649,8.826525,0.036651887,-0.01527162,0.0129808765,93.675,69.693756,95.34375,watch_1
12305182672691,1.6749759,3.9517467,8.927023,0.036651887,-0.01527162,0.0129808765,93.675,69.693756,95.34375,watch_1
12305177709931,1.6749759,3.9517467,8.927023,0.074525505,-0.018936807,0.023976443,92.7375,69.76875,93.4875,watch_1
12305195647691,1.6749759,3.9517467,8.927023,0.074525505,-0.018936807,0.023976443,92.7375,69.76875,93.4875,watch_1
12305205647639,1.6749759,3.9517467,8.927023,0.074525505,-0.018936807,0.023976443,92.64375,70.18125,93.15,watch_1
12305196782952,1.713261,3.9613178,9.022736,-0.0073303776,-0.025045456,0.027641632,92.64375,70.18125,93.15,watch_1
12305201745712,1.713261,3.9613178,9.022736,-0.0073303776,-0.025045456,0.027641632,92.64375,70.18125,93.15,watch_1
12305215647587,1.713261,3.9613178,9.022736,-0.0073303776,-0.025045456,0.027641632,93.412506,70.256256,93.95625,watch_1
12305225647535,1.713261,3.9613178,9.022736,-0.0073303776,-0.025045456,0.027641632,93.61875,71.175,92.4375,watch_1
12305220819723,1.6749759,3.8751762,9.046664,-0.0073303776,-0.025045456,0.027641632,93.61875,71.175,92.4375,watch_1
12305215856962,1.6749759,3.8751762,9.046664,-0.11606431,-0.034819294,0.031306818,93.61875,71.175,92.4375,watch_1
12305235647483,1.6749759,3.8751762,9.046664,-0.11606431,-0.034819294,0.031306818,94.200005,69.225006,94.725006,watch_1
12305245647431,1.6749759,3.8751762,9.046664,-0.11606431,-0.034819294,0.031306818,92.45625,70.03125,93.0,watch_1
12305234899931,1.6462619,3.8321054,9.022736,-0.16859868,-0.049480047,0.041080657,92.45625,70.03125,93.0,watch_1
12305239862691,1.6462619,3.8321054,9.022736,-0.16859868,-0.049480047,0.041080657,92.45625,70.03125,93.0,watch_1
12305255647379,1.6462619,3.8321054,9.022736,-0.16859868,-0.049480047,0.041080657,94.93125,69.356255,93.3375,watch_1
12305265647327,1.6462619,3.8321054,9.022736,-0.16859868,-0.049480047,0.041080657,93.506256,69.8625,93.8625,watch_1
12305253972952,1.6510476,3.5066817,8.740383,-0.13805544,-0.064140804,0.054519683,93.506256,69.8625,93.8625,watch_1
12305258935712,1.6510476,3.5066817,8.740383,-0.13805544,-0.064140804,0.054519683,93.506256,69.8625,93.8625,watch_1
12305275647275,1.6510476,3.5066817,8.740383,-0.13805544,-0.064140804,0.054519683,93.506256,71.26875,93.5625,watch_1
12305285647223,1.6510476,3.5066817,8.740383,-0.13805544,-0.064140804,0.054519683,94.068756,71.25,92.043755,watch_1
12305278009723,1.6701902,3.4444683,8.654242,-0.010995566,-0.06780599,0.06551525,94.068756,71.25,92.043755,watch_1
12305273046962,1.6701902,3.4444683,8.654242,-0.010995566,-0.06780599,0.06551525,94.068756,71.25,92.043755,watch_1
12305295647171,1.6701902,3.4444683,8.654242,-0.010995566,-0.06780599,0.06551525,94.36875,70.96875,93.1125,watch_1
12305305647118,1.6701902,3.4444683,8.654242,-0.010995566,-0.06780599,0.06551525,93.1875,70.93125,94.14375,watch_1
12305297082691,1.6462619,3.784249,8.912666,0.05253437,-0.060475614,0.074067354,93.1875,70.93125,94.14375,watch_1
12305292119931,1.6462619,3.784249,8.912666,0.05253437,-0.060475614,0.074067354,93.1875,70.93125,94.14375,watch_1
12305315647066,1.6462619,3.784249,8.912666,0.05253437,-0.060475614,0.074067354,93.825005,71.793755,91.51875,watch_1
12305325647014,1.6462619,3.784249,8.912666,0.05253437,-0.060475614,0.074067354,94.3125,70.55625,92.86875,watch_1
12305316156702,1.6031911,3.7124643,9.032308,-0.042760536,-0.07147118,0.07773254,94.3125,70.55625,92.86875,watch_1
12305311193941,1.6031911,3.7124643,9.032308,-0.042760536,-0.07147118,0.07773254,94.3125,70.55625,92.86875,watch_1
12305335646962,1.6031911,3.7124643,9.032308,-0.042760536,-0.07147118,0.07773254,93.24375,71.68125,93.05625,watch_1
12305330266962,1.7563318,3.650251,8.869596,-0.15882485,-0.08857539,0.07651082,93.24375,71.68125,93.05625,watch_1
12305335229723,1.7563318,3.650251,8.869596,-0.15882485,-0.08857539,0.07651082,93.24375,71.68125,93.05625,watch_1
12305345646910,1.7563318,3.650251,8.869596,-0.15882485,-0.08857539,0.07651082,93.825005,70.9875,95.662506,watch_1
12305355646858,1.7563318,3.650251,8.869596,-0.15882485,-0.08857539,0.07651082,94.012505,70.18125,95.193756,watch_1
12305349340973,1.7563318,3.650251,8.869596,-0.18692462,-0.091018856,0.08872811,94.012505,70.18125,95.193756,watch_1
12305365646806,1.7419748,3.7220356,8.860024,-0.18692462,-0.091018856,0.08872811,92.606255,69.58125,94.950005,watch_1
12305354303733,1.7419748,3.7220356,8.860024,-0.18692462,-0.091018856,0.08872811,92.606255,69.58125,94.950005,watch_1
12305375646754,1.7419748,3.7220356,8.860024,-0.18692462,-0.091018856,0.08872811,93.543755,71.7375,92.512505,watch_1
12305373376702,1.6797615,3.4683964,8.7164545,-0.16371176,-0.09224058,0.09850194,93.543755,71.7375,92.512505,watch_1
12305368413941,1.6797615,3.4683964,8.7164545,-0.16371176,-0.09224058,0.09850194,93.543755,71.7375,92.512505,watch_1
12305385646702,1.6797615,3.4683964,8.7164545,-0.16371176,-0.09224058,0.09850194,91.575005,71.30625,93.787506,watch_1
12305395646650,1.6797615,3.4683964,8.7164545,-0.16371176,-0.09224058,0.09850194,95.325005,71.53125,92.7375,watch_1
12305387487952,1.7324036,3.4444683,8.797811,-0.0537561,-0.08491021,0.093615025,95.325005,71.53125,92.7375,watch_1
12305392450712,1.7324036,3.4444683,8.797811,-0.0537561,-0.08491021,0.093615025,95.325005,71.53125,92.7375,watch_1
12305405646598,1.7324036,3.4444683,8.797811,-0.0537561,-0.08491021,0.093615025,92.193756,69.95625,94.425,watch_1
12305415646546,1.7324036,3.4444683,8.797811,-0.0537561,-0.08491021,0.093615025,92.981255,71.756256,94.631256,watch_1
12305406530973,1.6127625,3.7172499,9.104092,0.019547673,-0.08491021,0.099723674,93.09375,70.21875,93.918755,watch_1
12305425646493,1.6127625,3.7172499,9.104092,0.019547673,-0.08491021,0.099723674,93.09375,70.21875,93.918755,watch_1
12305411493733,1.6127625,3.7172499,9.104092,0.019547673,-0.08491021,0.099723674,93.09375,70.21875,93.918755,watch_1
12305435646441,1.6127625,3.7172499,9.104092,0.019547673,-0.08491021,0.099723674,92.9625,71.45625,94.950005,watch_1
12305430566702,1.4979069,3.9373896,9.305089,0.019547673,-0.08491021,0.099723674,92.9625,71.45625,94.950005,watch_1
12305425603941,1.4979069,3.9373896,9.305089,-0.05986475,-0.10567961,0.11682789,92.9625,71.45625,94.950005,watch_1
12305445646389,1.4979069,3.9373896,9.305089,-0.05986475,-0.10567961,0.11682789,95.68125,73.0875,94.8,watch_1
12305455646337,1.4979069,3.9373896,9.305089,-0.05986475,-0.10567961,0.11682789,93.543755,70.14375,94.125,watch_1
12305449640712,1.3399807,4.0474596,9.400802,-0.05986475,-0.10567961,0.11682789,93.543755,70.14375,94.125,watch_1
12305444677952,1.3399807,4.0474596,9.400802,-0.2357938,-0.15332706,0.1632536,94.350006,72.075005,94.162506,watch_1
12305465646285,1.3399807,4.0474596,9.400802,-0.2357938,-0.15332706,0.1632536,94.350006,72.075005,94.162506,watch_1
12305475646233,1.3399807,4.0474596,9.400802,-0.2357938,-0.15332706,0.1632536,94.125,70.856255,97.162506,watch_1
12305468713733,0.9667004,4.631308,9.659226,-0.43615746,-0.22296564,0.2622137,94.125,70.856255,97.162506,watch_1
12305463750973,0.9667004,4.631308,9.659226,-0.43615746,-0.22296564,0.2622137,94.125,70.856255,97.162506,watch_1
12305485646181,0.9667004,4.631308,9.659226,-0.43615746,-0.22296564,0.2622137,95.71875,68.418755,101.08125,watch_1
12305495646129,0.9667004,4.631308,9.659226,-0.43615746,-0.22296564,0.2622137,92.4375,70.818756,94.8,watch_1
12305482824931,0.56470615,4.540381,10.147363,-0.75747234,-0.36224282,0.41004297,92.4375,70.818756,94.8,watch_1
12305487787691,0.56470615,4.540381,10.147363,-0.75747234,-0.36224282,0.41004297,92.4375,70.818756,94.8,watch_1
12305505646077,0.56470615,4.540381,10.147363,-0.75747234,-0.36224282,0.41004297,93.1125,72.75,95.11875,watch_1
12305501897952,0.70348984,4.31067,10.477572,-1.1569779,-0.54550225,0.51999867,92.943756,72.5625,95.700005,watch_1
12305515646025,0.70348984,4.31067,10.477572,-1.1569779,-0.54550225,0.51999867,92.943756,72.5625,95.700005,watch_1
12305506860712,0.70348984,4.31067,10.477572,-1.1569779,-0.54550225,0.51999867,92.943756,72.5625,95.700005,watch_1
12305525645973,0.70348984,4.31067,10.477572,-1.1569779,-0.54550225,0.51999867,92.025,73.725006,95.49375,watch_1
12305535645921,0.70348984,4.31067,10.477572,-1.1569779,-0.54550225,0.51999867,93.24375,70.856255,97.950005,watch_1
12305525934723,0.7178468,3.9134614,10.83171,-1.1569779,-0.54550225,0.51999867,93.24375,70.856255,97.950005,watch_1
12305520971962,0.7178468,3.9134614,10.83171,-1.436754,-0.7507528,0.6214022,93.24375,70.856255,97.950005,watch_1
12305545645868,0.7178468,3.9134614,10.83171,-1.436754,-0.7507528,0.6214022,91.856255,73.2375,97.40626,watch_1
12305545007691,0.4881358,3.0089746,11.35813,-1.5931354,-1.0366375,0.72280574,91.856255,73.2375,97.40626,watch_1
12305540044931,0.4881358,3.0089746,11.35813,-1.5931354,-1.0366375,0.72280574,91.856255,73.2375,97.40626,watch_1
12305555645816,0.4881358,3.0089746,11.35813,-1.5931354,-1.0366375,0.72280574,91.068756,72.693756,98.381256,watch_1
12305565645764,0.4881358,3.0089746,11.35813,-1.5931354,-1.0366375,0.72280574,91.425,73.3125,97.481255,watch_1
12305575645712,0.4881358,3.0089746,11.35813,-1.7006476,-1.3884957,0.7973313,89.475006,72.881256,99.787506,watch_1
12305559087952,0.4881358,3.0089746,11.35813,-1.7006476,-1.3884957,0.7973313,89.475006,72.881256,99.787506,watch_1
12305564050712,0.82313097,2.989832,11.530415,-1.7006476,-1.3884957,0.7973313,89.475006,72.881256,99.787506,watch_1
12305585645660,0.82313097,2.989832,11.530415,-1.7006476,-1.3884957,0.7973313,89.26875,76.6875,98.512505,watch_1
12305578161962,1.4069797,3.138187,10.769497,-1.8643593,-1.7427973,0.8865175,89.26875,76.6875,98.512505,watch_1
12305583124723,1.4069797,3.138187,10.769497,-1.8643593,-1.7427973,0.8865175,89.26875,76.6875,98.512505,watch_1
12305595645608,1.4069797,3.138187,10.769497,-1.8643593,-1.7427973,0.8865175,87.375,75.731255,98.83125,watch_1
12305605645556,1.4069797,3.138187,10.769497,-1.8643593,-1.7427973,0.8865175,86.90625,76.950005,98.64375,watch_1
12305602197691,2.1774685,2.4825535,9.817153,-1.8643593,-1.7427973,0.8865175,86.90625,76.950005,98.64375,watch_1
12305597234931,2.1774685,2.4825535,9.817153,-2.1746786,-2.0494514,0.92561287,86.90625,76.950005,98.64375,watch_1
12305615645504,2.1774685,2.4825535,9.817153,-2.1746786,-2.0494514,0.92561287,85.481255,78.881256,98.7375,watch_1
12305625645452,2.1774685,2.4825535,9.817153,-2.1746786,-2.0494514,0.92561287,84.318756,77.7375,99.00001,watch_1
12305621271702,2.7421749,0.7645068,9.343374,-2.1746786,-2.0494514,0.92561287,84.318756,77.7375,99.00001,watch_1
12305616308941,2.7421749,0.7645068,9.343374,-2.3958116,-2.3328927,0.9488257,84.318756,77.7375,99.00001,watch_1
12305635645400,2.7421749,0.7645068,9.343374,-2.3958116,-2.3328927,0.9488257,81.543755,78.037506,100.68751,watch_1
12305645645348,2.7421749,0.7645068,9.343374,-2.3958116,-2.3328927,0.9488257,83.475006,80.381256,101.850006,watch_1
12305635381962,3.7423747,-0.68075806,8.994022,-2.4226897,-2.6114469,0.9121738,83.475006,80.381256,101.850006,watch_1
12305640344723,3.7423747,-0.68075806,8.994022,-2.4226897,-2.6114469,0.9121738,83.475006,80.381256,101.850006,watch_1
12305655645296,3.7423747,-0.68075806,8.994022,-2.4226897,-2.6114469,0.9121738,80.381256,80.662506,102.918755,watch_1
12305665645243,3.7423747,-0.68075806,8.994022,-2.4226897,-2.6114469,0.9121738,79.725006,81.262505,104.08125,watch_1
12305654455973,4.6803613,-1.7623138,8.247461,-2.3029602,-2.918101,0.8193224,79.725006,81.262505,104.08125,watch_1
12305659418733,4.6803613,-1.7623138,8.247461,-2.3029602,-2.918101,0.8193224,79.725006,81.262505,104.08125,watch_1
12305675645191,4.6803613,-1.7623138,8.247461,-2.3029602,-2.918101,0.8193224,78.7125,81.7125,103.200005,watch_1
12305685645139,4.6803613,-1.7623138,8.247461,-2.3029602,-2.918101,0.8193224,76.350006,82.912506,105.43125,watch_1
12305678491702,5.4460645,-2.0015962,6.931409,-2.1893394,-3.211316,0.72280574,76.350006,82.912506,105.43125,watch_1
12305673528941,5.4460645,-2.0015962,6.931409,-2.1893394,-3.211316,0.72280574,76.350006,82.912506,105.43125,watch_1
12305695645087,5.4460645,-2.0015962,6.931409,-2.1893394,-3.211316,0.72280574,76.74375,83.662506,105.975006,watch_1
12305705645035,5.4460645,-2.0015962,6.931409,-2.1893394,-3.211316,0.72280574,73.106255,83.9625,109.162506,watch_1
12305697565712,6.0634127,-1.9106688,5.610571,-2.1893394,-3.211316,0.72280574,73.106255,83.9625,109.162506,watch_1
12305692602952,6.0634127,-1.9106688,5.610571,-2.2492042,-3.415345,0.6458368,72.3375,84.975006,110.137505,watch_1
12305715644983,6.0634127,-1.9106688,5.610571,-2.2492042,-3.415345,0.6458368,72.3375,84.975006,110.137505,watch_1
12305725644931,6.0634127,-1.9106688,5.610571,-2.2492042,-3.415345,0.6458368,72.1875,86.512505,109.537506,watch_1
12305716608733,6.8817577,-2.0638096,3.6867416,-2.2492042,-3.415345,0.6458368,72.1875,86.512505,109.537506,watch_1
12305711645973,6.8817577,-2.0638096,3.6867416,-2.692692,-3.599826,0.540768,69.3,86.925,112.36875,watch_1
12305735644879,6.8817577,-2.0638096,3.6867416,-2.692692,-3.599826,0.540768,69.3,86.925,112.36875,watch_1
12305745644827,6.8817577,-2.0638096,3.6867416,-2.692692,-3.599826,0.540768,70.950005,88.106255,113.887505,watch_1
12305735681702,8.078169,-3.0161529,1.6097715,-2.692692,-3.599826,0.540768,70.950005,88.106255,113.887505,watch_1
12305730718941,8.078169,-3.0161529,1.6097715,-3.1569493,-3.7647595,0.364839,70.950005,88.106255,113.887505,watch_1
12305755644775,8.078169,-3.0161529,1.6097715,-3.1569493,-3.7647595,0.364839,69.0,88.762505,117.24375,watch_1
12305749791962,8.078169,-3.0161529,1.6097715,-3.2998915,-3.758651,0.12171481,69.0,88.762505,117.24375,watch_1
12305754754723,8.34138,-3.6957145,-0.07956135,-3.2998915,-3.758651,0.12171481,69.0,88.762505,117.24375,watch_1
12305765644723,8.34138,-3.6957145,-0.07956135,-3.2998915,-3.758651,0.12171481,67.4625,86.68125,118.70625,watch_1
12305775644671,8.34138,-3.6957145,-0.07956135,-3.2998915,-3.758651,0.12171481,68.137505,88.106255,122.43751,watch_1
12305773828733,8.049456,-3.8727834,-1.3716856,-3.3524258,-3.5851655,-0.12873976,68.137505,88.106255,122.43751,watch_1
12305768865973,8.049456,-3.8727834,-1.3716856,-3.3524258,-3.5851655,-0.12873976,68.137505,88.106255,122.43751,watch_1
12305785644618,8.049456,-3.8727834,-1.3716856,-3.3524258,-3.5851655,-0.12873976,66.412506,89.981255,122.925,watch_1
12305795644566,8.049456,-3.8727834,-1.3716856,-3.3524258,-3.5851655,-0.12873976,67.425,90.9375,124.40626,watch_1
12305792901702,8.781659,-4.7676992,-2.9557343,-3.5527894,-3.3823583,-0.37308568,67.425,90.9375,124.40626,watch_1
12305787938941,8.781659,-4.7676992,-2.9557343,-3.5527894,-3.3823583,-0.37308568,67.425,90.9375,124.40626,watch_1
12305805644514,8.781659,-4.7676992,-2.9557343,-3.5527894,-3.3823583,-0.37308568,66.037506,90.15,126.20625,watch_1
12305815644462,8.781659,-4.7676992,-2.9557343,-3.5527894,-3.3823583,-0.37308568,64.03125,92.137505,127.2375,watch_1
12305811975712,9.71486,-4.4374895,-4.956134,-3.5527894,-3.3823583,-0.37308568,64.03125,92.137505,127.2375,watch_1
12305807012952,9.71486,-4.4374895,-4.956134,-3.8912086,-2.9193227,-0.6027708,64.03125,92.137505,127.2375,watch_1
12305825644410,9.71486,-4.4374895,-4.956134,-3.8912086,-2.9193227,-0.6027708,63.468754,92.006256,129.50626,watch_1
12305835644358,9.71486,-4.4374895,-4.956134,-3.8912086,-2.9193227,-0.6027708,64.012505,92.11875,134.21251,watch_1
12305831048733,9.757931,-3.906283,-4.879564,-3.9742863,-2.1080945,-0.8202387,62.86875,91.256256,134.45625,watch_1
12305826085973,9.757931,-3.906283,-4.879564,-3.9742863,-2.1080945,-0.8202387,62.86875,91.256256,134.45625,watch_1
12305845644306,9.757931,-3.906283,-4.879564,-3.9742863,-2.1080945,-0.8202387,62.86875,91.256256,134.45625,watch_1
12305855644254,9.757931,-3.906283,-4.879564,-3.9742863,-2.1080945,-0.8202387,63.05625,91.40625,134.88751,watch_1
12305850122691,7.5517483,-4.4279184,-2.9796624,-3.8728826,-1.0622939,-0.72372204,63.05625,91.40625,134.88751,watch_1
12305845159931,7.5517483,-4.4279184,-2.9796624,-3.8728826,-1.0622939,-0.72372204,63.05625,91.40625,134.88751,watch_1
12305865644202,7.5517483,-4.4279184,-2.9796624,-3.8728826,-1.0622939,-0.72372204,63.600002,92.15625,136.33125,watch_1
12305875644150,7.5517483,-4.4279184,-2.9796624,-3.8728826,-1.0622939,-0.72372204,64.575005,91.275,137.11876,watch_1
12305869165712,6.2691956,-6.198607,-1.204188,-3.8728826,-1.0622939,-0.72372204,64.575005,91.275,137.11876,watch_1
12305864202952,6.2691956,-6.198607,-1.204188,-3.4391687,-0.11423171,-0.54534954,64.575005,91.275,137.11876,watch_1
12305885644098,6.2691956,-6.198607,-1.204188,-3.4391687,-0.11423171,-0.54534954,64.6125,94.068756,138.73126,watch_1
12305895644046,6.2691956,-6.198607,-1.204188,-3.4391687,-0.11423171,-0.54534954,63.581253,94.21875,138.31876,watch_1
12305888238733,6.6424756,-5.7152567,0.2650051,-3.4391687,-0.11423171,-0.54534954,63.581253,94.21875,138.31876,watch_1
12305883275973,6.6424756,-5.7152567,0.2650051,-2.3469424,0.7348703,-0.37308568,63.581253,94.21875,138.31876,watch_1
12305905643993,6.6424756,-5.7152567,0.2650051,-2.3469424,0.7348703,-0.37308568,63.318752,93.356255,138.07501,watch_1
12305907312691,7.8484583,-2.288735,2.8875387,-1.7360777,1.6633848,-0.19349141,63.187504,93.15,139.38751,watch_1
12305915643941,7.8484583,-2.288735,2.8875387,-2.3469424,0.7348703,-0.37308568,63.187504,93.15,139.38751,watch_1
12305902349931,7.8484583,-2.288735,2.8875387,-1.7360777,1.6633848,-0.19349141,63.187504,93.15,139.38751,watch_1
12305925643889,7.8484583,-2.288735,2.8875387,-1.7360777,1.6633848,-0.19349141,64.74375,92.512505,139.35,watch_1
12305935643837,7.8484583,-2.288735,2.8875387,-1.7360777,1.6633848,-0.19349141,63.35625,91.875,140.55,watch_1
12305921422952,7.350751,-2.9156544,7.6396847,-1.5528183,2.4379613,0.13637556,63.35625,91.875,140.55,watch_1
12305926385712,7.350751,-2.9156544,7.6396847,-1.5528183,2.4379613,0.13637556,63.35625,91.875,140.55,watch_1
12305945643785,7.350751,-2.9156544,7.6396847,-1.5528183,2.4379613,0.13637556,65.15625,92.475006,137.64375,watch_1
12305955643733,2.1678972,-21.13939,58.850876,-1.2156209,1.8698571,0.42836893,62.4,91.9875,136.8,watch_1
12305945459723,2.1678972,-21.13939,58.850876,-1.2156209,1.8698571,0.42836893,62.4,91.9875,136.8,watch_1
12305940496962,2.1678972,-21.13939,58.850876,-1.2156209,1.8698571,0.42836893,62.4,91.9875,136.8,watch_1
12305965643681,2.1678972,-21.13939,58.850876,-1.2156209,1.8698571,0.42836893,64.0875,93.450005,137.86876,watch_1
12305959569931,2.1678972,-21.13939,58.850876,-0.25900668,-0.24251331,-0.97295487,64.0875,93.450005,137.86876,watch_1
12305975643629,2.1678972,-21.13939,58.850876,-0.25900668,-0.24251331,-0.97295487,62.737503,90.731255,138.26251,watch_1
12305964532691,5.7523456,-1.6426728,-21.906889,-0.25900668,-0.24251331,-0.97295487,62.737503,90.731255,138.26251,watch_1
12305985643577,5.7523456,-1.6426728,-21.906889,-0.25900668,-0.24251331,-0.97295487,64.05,90.4875,137.56876,watch_1
12305983606702,14.529219,6.0717874,10.788639,3.0237806,0.07024945,0.31352636,64.05,90.4875,137.56876,watch_1
12305978643941,14.529219,6.0717874,10.788639,3.0237806,0.07024945,0.31352636,64.05,90.4875,137.56876,watch_1
12305995643525,14.529219,6.0717874,10.788639,3.0237806,0.07024945,0.31352636,63.131252,90.543755,136.14375,watch_1
12306005643473,14.529219,6.0717874,10.788639,3.0237806,0.07024945,0.31352636,62.8875,92.34375,136.5375,watch_1
12306002679723,8.834301,-1.1449656,17.900108,0.4263836,0.24129158,-0.48670653,62.8875,92.34375,136.5375,watch_1
12305997716962,8.834301,-1.1449656,17.900108,0.4263836,0.24129158,-0.48670653,61.987503,91.256256,135.225,watch_1
12306015643421,8.834301,-1.1449656,17.900108,0.4263836,0.24129158,-0.48670653,61.987503,91.256256,135.225,watch_1
12306025643368,8.834301,-1.1449656,17.900108,0.4263836,0.24129158,-0.48670653,62.9625,90.8625,133.33125,watch_1
12306021722691,5.436493,-12.003594,10.515858,0.3591885,-0.7189878,-0.38530296,62.9625,90.8625,133.33125,watch_1
12306016759931,5.436493,-12.003594,10.515858,0.3591885,-0.7189878,-0.38530296,62.9625,90.8625,133.33125,watch_1
12306035643316,5.436493,-12.003594,10.515858,0.3591885,-0.7189878,-0.38530296,60.750004,89.55,134.8125,watch_1
12306045643264,5.436493,-12.003594,10.515858,0.3591885,-0.7189878,-0.38530296,61.8375,89.981255,134.90625,watch_1
12306040796702,11.274981,-4.092923,4.5912285,2.1575744,-0.98899007,-0.6638573,61.8375,89.981255,134.90625,watch_1
12306035833941,11.274981,-4.092923,4.5912285,2.1575744,-0.98899007,-0.6638573,61.8375,89.981255,134.90625,watch_1
12306055643212,11.274981,-4.092923,4.5912285,2.1575744,-0.98899007,-0.6638573,60.6375,89.9625,134.60626,watch_1
12306065643160,11.274981,-4.092923,4.5912285,2.1575744,-0.98899007,-0.6638573,61.0125,89.15625,134.88751,watch_1
12306059869723,11.657832,0.1471586,2.858825,2.4068072,-1.0598503,-0.54534954,61.0125,89.15625,134.88751,watch_1
12306054906962,11.657832,0.1471586,2.858825,2.4068072,-1.0598503,-0.54534954,61.0125,89.15625,134.88751,watch_1
12306075643108,11.657832,0.1471586,2.858825,2.4068072,-1.0598503,-0.54534954,60.693752,89.137505,134.26875,watch_1
12306085643056,11.657832,0.1471586,2.858825,2.4068072,-1.0598503,-0.54534954,59.831253,87.7125,135.90001,watch_1
12306078943733,9.777073,-0.9631111,1.8729819,1.0555743,-1.0317506,-0.51724976,60.7125,89.11875,135.28125,watch_1
12306073980973,9.777073,-0.9631111,1.8729819,1.0555743,-1.0317506,-0.51724976,60.7125,89.11875,135.28125,watch_1
12306095643004,9.777073,-0.9631111,1.8729819,1.0555743,-1.0317506,-0.51724976,60.7125,89.11875,135.28125,watch_1
12306093053941,9.767502,-2.5328028,0.4229314,0.47036588,-1.1062762,-0.37064222,59.775,89.9625,135.675,watch_1
12306098016702,9.767502,-2.5328028,0.4229314,0.47036588,-1.1062762,-0.37064222,59.775,89.9625,135.675,watch_1
12306105642952,9.767502,-2.5328028,0.4229314,0.47036588,-1.1062762,-0.37064222,59.775,89.9625,135.675,watch_1
12306115642900,9.767502,-2.5328028,0.4229314,0.47036588,-1.1062762,-0.37064222,60.975002,89.981255,135.95625,watch_1
12306117090712,9.614362,-2.9156544,-1.2376875,0.21746786,-1.0916153,-0.2667952,60.16875,87.84375,138.1125,watch_1
12306112127952,9.614362,-2.9156544,-1.2376875,0.21746786,-1.0916153,-0.2667952,60.16875,87.84375,138.1125,watch_1
12306125642848,9.614362,-2.9156544,-1.2376875,0.21746786,-1.0916153,-0.2667952,60.16875,87.84375,138.1125,watch_1
12306135642796,9.614362,-2.9156544,-1.2376875,0.21746786,-1.0916153,-0.2667952,60.300003,87.75,136.96875,watch_1
12306136163733,9.274581,-2.5710878,-3.4007993,0.21746786,-1.0916153,-0.2667952,59.081253,86.15625,137.41876,watch_1
12306145642743,9.274581,-2.5710878,-3.4007993,0.21746786,-1.0916153,-0.2667952,59.081253,86.15625,137.41876,watch_1
12306131200973,9.274581,-2.5710878,-3.4007993,0.3555233,-0.95478165,-0.39263335,59.081253,86.15625,137.41876,watch_1
12306155642691,9.274581,-2.5710878,-3.4007993,0.3555233,-0.95478165,-0.39263335,59.68125,87.506256,137.51251,watch_1
12306155237691,9.360723,-0.111266255,-4.319643,1.0604613,-0.8179479,-0.32665995,59.437504,88.05,136.9875,watch_1
12306150274931,9.360723,-0.111266255,-4.319643,1.0604613,-0.8179479,-0.32665995,59.437504,88.05,136.9875,watch_1
12306165642639,9.360723,-0.111266255,-4.319643,1.0604613,-0.8179479,-0.32665995,59.437504,88.05,136.9875,watch_1
12306175642587,9.360723,-0.111266255,-4.319643,1.0604613,-0.8179479,-0.32665995,59.381252,87.46875,137.77501,watch_1
12306169317952,9.360723,-0.111266255,-4.319643,1.0677916,-0.7214313,-0.14950916,59.381252,87.46875,137.77501,watch_1
12306185642535,9.609575,-0.111266255,-5.506483,1.0677916,-0.7214313,-0.14950916,59.625004,85.668755,137.83125,watch_1
12306174280712,9.609575,-0.111266255,-5.506483,1.0677916,-0.7214313,-0.14950916,59.625004,85.668755,137.83125,watch_1
12306195642483,9.609575,-0.111266255,-5.506483,1.0677916,-0.7214313,-0.14950916,58.987503,86.71875,137.0625,watch_1
12306193353733,9.652647,-2.1499512,-6.7698936,1.0677916,-0.7214313,-0.14950916,58.987503,86.71875,137.0625,watch_1
12306188390973,9.652647,-2.1499512,-6.7698936,0.72204214,-0.5845976,-0.0810923,59.081253,86.15625,137.41876,watch_1
12306205642431,9.652647,-2.1499512,-6.7698936,0.72204214,-0.5845976,-0.0810923,59.081253,86.15625,137.41876,watch_1
12306215642379,9.652647,-2.1499512,-6.7698936,0.72204214,-0.5845976,-0.0810923,59.4,87.76875,136.725,watch_1
12306212427691,9.537791,-2.111666,-6.9613194,0.582765,-0.262061,-0.10063997,59.4,87.76875,136.725,watch_1
12306207464931,9.537791,-2.111666,-6.9613194,0.582765,-0.262061,-0.10063997,59.4,87.76875,136.725,watch_1
12306225642327,9.537791,-2.111666,-6.9613194,0.582765,-0.262061,-0.10063997,57.80625,85.59375,137.04376,watch_1
12306235642275,9.537791,-2.111666,-6.9613194,0.582765,-0.262061,-0.10063997,59.643753,87.075005,137.83125,watch_1
12306226537952,9.571291,-0.87218386,-6.726823,-0.028099779,0.22663084,-0.098196514,59.643753,87.075005,137.83125,watch_1
12306231500712,9.571291,-0.87218386,-6.726823,-0.028099779,0.22663084,-0.098196514,59.643753,87.075005,137.83125,watch_1
12306245642223,9.571291,-0.87218386,-6.726823,-0.028099779,0.22663084,-0.098196514,59.68125,87.525,137.0625,watch_1
12306255642171,9.571291,-0.87218386,-6.726823,-0.028099779,0.22663084,-0.098196514,57.843754,88.40625,137.64375,watch_1
12306250574723,9.801002,-1.4560326,-7.0283184,-0.028099779,0.22663084,-0.098196514,57.843754,88.40625,137.64375,watch_1
12306265642118,9.801002,-1.4560326,-7.0283184,-0.98960096,0.8081741,-0.04444041,59.193752,87.318756,136.89375,watch_1
12306245611962,9.801002,-1.4560326,-7.0283184,-0.98960096,0.8081741,-0.04444041,59.193752,87.318756,136.89375,watch_1
12306275642066,9.801002,-1.4560326,-7.0283184,-0.98960096,0.8081741,-0.04444041,59.268753,86.45625,138.15001,watch_1
12306264684931,9.3511505,-3.0161529,-6.1956162,-1.2388338,1.5387684,0.015424335,59.268753,86.45625,138.15001,watch_1
12306269647691,9.3511505,-3.0161529,-6.1956162,-1.2388338,1.5387684,0.015424335,59.268753,86.45625,138.15001,watch_1
12306285642014,9.3511505,-3.0161529,-6.1956162,-1.2388338,1.5387684,0.015424335,60.656254,86.943756,136.65001,watch_1
12306295641962,9.3511505,-3.0161529,-6.1956162,-1.2388338,1.5387684,0.015424335,57.412502,86.26875,135.33751,watch_1
12306288721702,7.9106717,-2.882155,-2.3336003,-1.2388338,1.5387684,0.015424335,57.412502,86.26875,135.33751,watch_1
12306283758941,7.9106717,-2.882155,-2.3336003,-0.7073814,2.326784,0.047189303,57.412502,86.26875,135.33751,watch_1
12306305641910,7.9106717,-2.882155,-2.3336003,-0.7073814,2.326784,0.047189303,59.568752,88.425,133.76251,watch_1
12306315641858,7.9106717,-2.882155,-2.3336003,-0.7073814,2.326784,0.047189303,60.393753,86.418755,133.76251,watch_1
12306307794723,7.015756,-2.044667,1.628914,-0.7073814,2.326784,0.047189303,60.393753,86.418755,133.76251,watch_1
12306302831962,7.015756,-2.044667,1.628914,-0.14660755,2.9938483,0.014202606,60.393753,86.418755,133.76251,watch_1
12306325641806,7.015756,-2.044667,1.628914,-0.14660755,2.9938483,0.014202606,62.250004,87.09375,133.20001,watch_1
12306335641754,-4.8047876,-19.35913,41.67998,-0.14660755,2.9938483,0.014202606,61.18125,87.28125,131.45625,watch_1
12306326837691,-4.8047876,-19.35913,41.67998,-0.14660755,2.9938483,0.014202606,61.18125,87.28125,131.45625,watch_1
12306321874931,-4.8047876,-19.35913,41.67998,-0.98960096,2.5418084,-0.20815217,61.18125,87.28125,131.45625,watch_1
12306345641702,-4.8047876,-19.35913,41.67998,-0.98960096,2.5418084,-0.20815217,61.10625,87.80625,132.5625,watch_1
12306355641650,-4.8047876,-19.35913,41.67998,-0.98960096,2.5418084,-0.20815217,61.218754,88.818756,132.16876,watch_1
12306345910712,4.5894337,1.8604196,-21.715464,-0.98960096,2.5418084,-0.20815217,61.218754,88.818756,132.16876,watch_1
12306340947952,4.5894337,1.8604196,-21.715464,-0.59620404,0.43676832,-0.30222535,61.218754,88.818756,132.16876,watch_1
12306365641598,4.5894337,1.8604196,-21.715464,-0.59620404,0.43676832,-0.30222535,61.0875,86.5875,130.5,watch_1
12306360021962,4.5894337,1.8604196,-21.715464,4.2381797,-0.57848895,-0.0029016077,61.0875,86.5875,130.5,watch_1
12306375641546,18.57309,11.359925,17.31626,4.2381797,-0.57848895,-0.0029016077,61.18125,85.875,131.4375,watch_1
12306364984723,18.57309,11.359925,17.31626,4.2381797,-0.57848895,-0.0029016077,61.18125,85.875,131.4375,watch_1
12306385641493,18.57309,11.359925,17.31626,4.2381797,-0.57848895,-0.0029016077,61.406254,84.8625,133.1625,watch_1
12306384057691,2.6799614,-6.6963143,19.230516,0.100181825,-1.1465932,-0.34254244,61.406254,84.8625,133.1625,watch_1
12306379094931,2.6799614,-6.6963143,19.230516,0.100181825,-1.1465932,-0.34254244,61.406254,84.8625,133.1625,watch_1
12306395641441,2.6799614,-6.6963143,19.230516,0.100181825,-1.1465932,-0.34254244,60.300003,84.28125,133.5375,watch_1
12306405641389,2.6799614,-6.6963143,19.230516,0.100181825,-1.1465932,-0.34254244,58.537502,86.231255,131.55,watch_1
12306403131702,6.206982,-6.026324,3.4809587,1.147204,-1.4153737,-0.033444848,58.537502,86.231255,131.55,watch_1
12306398168941,6.206982,-6.026324,3.4809587,1.147204,-1.4153737,-0.033444848,58.162502,84.01875,132.88126,watch_1
12306415641337,6.206982,-6.026324,3.4809587,1.147204,-1.4153737,-0.033444848,58.162502,84.01875,132.88126,watch_1
12306425641285,6.206982,-6.026324,3.4809587,1.147204,-1.4153737,-0.033444848,59.5125,85.33125,133.05,watch_1
12306422204723,15.754344,6.2727847,3.0693932,2.5179846,-1.2541054,-0.41706792,59.5125,85.33125,133.05,watch_1
12306417241962,15.754344,6.2727847,3.0693932,2.5179846,-1.2541054,-0.41706792,59.5125,85.33125,133.05,watch_1
12306435641233,15.754344,6.2727847,3.0693932,2.5179846,-1.2541054,-0.41706792,59.025,84.05625,130.5,watch_1
12306445641181,15.754344,6.2727847,3.0693932,2.5179846,-1.2541054,-0.41706792,60.15,86.006256,131.88751,watch_1
12306436315973,6.7764735,0.6113662,5.3186464,0.51312643,-0.87536925,0.08994984,60.15,86.006256,131.88751,watch_1
12306441278733,6.7764735,0.6113662,5.3186464,0.51312643,-0.87536925,0.08994984,60.15,86.006256,131.88751,watch_1
12306455641129,6.7764735,0.6113662,5.3186464,0.51312643,-0.87536925,0.08994984,58.800003,85.818756,132.1875,watch_1
12306465641077,6.7764735,0.6113662,5.3186464,0.51312643,-0.87536925,0.08994984,58.275,83.606255,133.06876,watch_1
12306460351702,8.571091,-3.32722,1.6767704,-0.37384924,-1.1417062,0.11804962,58.275,83.606255,133.06876,watch_1
12306455388941,8.571091,-3.32722,1.6767704,-0.37384924,-1.1417062,0.11804962,58.275,83.606255,133.06876,watch_1
12306475641025,8.571091,-3.32722,1.6767704,-0.37384924,-1.1417062,0.11804962,58.143753,85.162506,132.91876,watch_1
12306485640973,8.571091,-3.32722,1.6767704,-0.37384924,-1.1417062,0.11804962,58.875004,83.512505,134.45625,watch_1
12306479394723,10.9017,-0.5132605,-0.07956135,-0.37384924,-1.1417062,0.11804962,58.875004,83.512505,134.45625,watch_1
12306474431962,10.9017,-0.5132605,-0.07956135,0.537561,-1.0158682,0.07895427,58.4625,85.162506,134.40001,watch_1
12306495640921,10.9017,-0.5132605,-0.07956135,0.537561,-1.0158682,0.07895427,58.4625,85.162506,134.40001,watch_1
12306505640868,9.446864,-0.13519448,0.2219343,0.537561,-1.0158682,0.07895427,59.8875,85.93125,133.9125,watch_1
12306498468733,9.446864,-0.13519448,0.2219343,0.537561,-1.0158682,0.07895427,59.8875,85.93125,133.9125,watch_1
12306493505973,9.446864,-0.13519448,0.2219343,0.46914417,-0.80206543,0.2707658,59.8875,85.93125,133.9125,watch_1
12306515640816,9.446864,-0.13519448,0.2219343,0.46914417,-0.80206543,0.2707658,58.050003,84.1125,134.75626,watch_1
12306525640764,9.446864,-0.13519448,0.2219343,0.46914417,-0.80206543,0.2707658,58.800003,85.481255,134.85,watch_1
12306517541702,8.949157,-2.1020947,-0.7830512,0.46914417,-0.80206543,0.2707658,58.800003,85.481255,134.85,watch_1
12306512578941,8.949157,-2.1020947,-0.7830512,-0.10873393,-0.6517927,0.34529132,58.800003,85.481255,134.85,watch_1
12306535640712,8.949157,-2.1020947,-0.7830512,-0.10873393,-0.6517927,0.34529132,61.687504,85.537506,136.33125,watch_1
12306545640660,8.949157,-2.0015962,-1.5918252,-0.10873393,-0.6517927,0.34529132,58.912502,84.918755,135.4875,watch_1
12306536615712,9.202796,-2.0015962,-1.5918252,-0.10873393,-0.6517927,0.34529132,58.912502,84.918755,135.4875,watch_1
12306531652952,9.202796,-2.0015962,-1.5918252,-0.25045455,-0.45142907,0.319635,58.912502,84.918755,135.4875,watch_1
12306555640608,9.202796,-2.0015962,-1.5918252,-0.25045455,-0.45142907,0.319635,59.175003,85.762505,136.59375,watch_1
12306550725973,8.949157,-1.5804594,-2.108675,-0.2150244,-0.28038692,0.36606073,59.250004,86.8125,134.75626,watch_1
12306565640556,8.949157,-1.5804594,-2.108675,-0.2150244,-0.28038692,0.36606073,59.250004,86.8125,134.75626,watch_1
12306555688733,8.949157,-1.5804594,-2.108675,-0.2150244,-0.28038692,0.36606073,59.175003,85.762505,136.59375,watch_1
12306575640504,8.949157,-1.5804594,-2.108675,-0.2150244,-0.28038692,0.36606073,60.018753,85.3125,136.59375,watch_1
12306569799931,8.949157,-1.5804594,-2.108675,0.0097738365,-0.09834923,0.46990773,60.018753,85.3125,136.59375,watch_1
12306574762691,8.7577305,-2.3748765,-2.8025935,0.0097738365,-0.09834923,0.46990773,60.61875,84.731255,140.64375,watch_1
12306585640452,8.7577305,-2.3748765,-2.8025935,0.0097738365,-0.09834923,0.46990773,60.61875,84.731255,140.64375,watch_1
12306595640400,8.7577305,-2.3748765,-2.8025935,0.0097738365,-0.09834923,0.46990773,59.662502,87.525,136.78125,watch_1
12306605640348,8.886943,-3.0735807,-3.6400814,0.08185588,0.14966187,0.48334676,60.000004,86.5875,136.18126,watch_1
12306593835712,8.886943,-3.0735807,-3.6400814,0.08185588,0.14966187,0.48334676,60.000004,86.5875,136.18126,watch_1
12306588872952,8.886943,-3.0735807,-3.6400814,0.08185588,0.14966187,0.48334676,60.000004,86.5875,136.18126,watch_1
12306615640296,8.886943,-3.0735807,-3.6400814,0.08185588,0.14966187,0.48334676,61.218754,86.90625,135.5625,watch_1
12306607946962,9.245867,-3.1405797,-5.047061,-0.34452772,0.47952884,0.39538223,61.312504,87.9375,134.45625,watch_1
12306625640243,9.245867,-3.1405797,-5.047061,-0.34452772,0.47952884,0.39538223,61.312504,87.9375,134.45625,watch_1
12306612909723,9.245867,-3.1405797,-5.047061,0.08185588,0.14966187,0.48334676,61.218754,86.90625,135.5625,watch_1
12306635640191,9.245867,-3.1405797,-5.047061,-0.34452772,0.47952884,0.39538223,60.468754,87.1125,134.4375,watch_1
12306627019931,9.815358,-4.4135613,-7.167102,-1.0604613,0.948673,0.3074177,60.468754,87.1125,134.4375,watch_1
12306631982691,9.815358,-4.4135613,-7.167102,-1.0604613,0.948673,0.3074177,60.468754,87.1125,134.4375,watch_1
12306645640139,9.815358,-4.4135613,-7.167102,-1.0604613,0.948673,0.3074177,58.10625,87.543755,133.40625,watch_1
12306655640087,9.815358,-4.4135613,-7.167102,-1.0604613,0.948673,0.3074177,60.45,87.15,132.69376,watch_1
12306651025712,9.269794,-5.298906,-8.22473,-1.178969,1.7696753,0.229227,60.45,87.15,132.69376,watch_1
12306646062952,9.269794,-5.298906,-8.22473,-1.178969,1.7696753,0.229227,60.45,87.15,132.69376,watch_1
12306665640035,9.269794,-5.298906,-8.22473,-1.178969,1.7696753,0.229227,60.05625,87.675,132.45001,watch_1
12306675639983,9.269794,-5.298906,-8.22473,-1.178969,1.7696753,0.229227,59.79375,88.068756,132.52501,watch_1
12306670099723,8.039884,-4.743771,-6.89432,-0.8148936,2.8741188,0.022754714,59.79375,88.068756,132.52501,watch_1
12306665136962,8.039884,-4.743771,-6.89432,-0.8148936,2.8741188,0.022754714,59.79375,88.068756,132.52501,watch_1
12306685639931,8.039884,-4.743771,-6.89432,-0.8148936,2.8741188,0.022754714,61.0125,87.1125,131.30626,watch_1
12306695639879,8.039884,-4.743771,-6.89432,-0.8148936,2.8741188,0.022754714,61.612503,86.887505,132.4125,watch_1
12306684209931,6.771688,-4.2508492,-0.7160522,-0.8063415,3.9321365,-0.33154687,61.612503,86.887505,132.4125,watch_1
12306689172691,6.771688,-4.2508492,-0.7160522,-0.8063415,3.9321365,-0.33154687,61.612503,86.887505,132.4125,watch_1
12306705639827,6.771688,-4.2508492,-0.7160522,-0.8063415,3.9321365,-0.33154687,64.725006,83.7375,133.8,watch_1
12306715639775,6.771688,-4.2508492,-0.7160522,-0.8063415,3.9321365,-0.33154687,61.66875,87.450005,132.65625,watch_1
12306703283941,-10.480563,-10.6014,12.004193,-2.0488405,1.8002185,-0.16661337,61.66875,87.450005,132.65625,watch_1
12306708246702,-10.480563,-10.6014,12.004193,-2.0488405,1.8002185,-0.16661337,61.66875,87.450005,132.65625,watch_1
12306725639723,-10.480563,-10.6014,12.004193,-2.0488405,1.8002185,-0.16661337,62.081253,86.15625,129.63751,watch_1
12306735639671,-10.480563,-10.6014,12.004193,-2.0488405,1.8002185,-0.16661337,62.60625,87.1125,128.71875,watch_1
12306722356962,11.787045,-6.5958157,10.085149,1.6969824,0.844826,-0.85689056,62.60625,87.1125,128.71875,watch_1
12306727319723,11.787045,-6.5958157,10.085149,1.6969824,0.844826,-0.85689056,62.60625,87.1125,128.71875,watch_1
12306745639618,11.787045,-6.5958157,10.085149,1.6969824,0.844826,-0.85689056,61.55625,87.28125,127.275,watch_1
12306755639566,11.787045,-6.5958157,10.085149,1.6969824,0.844826,-0.85689056,61.968754,85.14375,130.44376,watch_1
12306746393733,16.194624,14.9300165,13.286746,2.3616033,-0.13500112,0.08872811,61.968754,85.14375,130.44376,watch_1
12306741430973,16.194624,14.9300165,13.286746,2.3616033,-0.13500112,0.08872811,61.968754,85.14375,130.44376,watch_1
12306765639514,16.194624,14.9300165,13.286746,2.3616033,-0.13500112,0.08872811,60.375004,85.818756,129.0375,watch_1
12306760503941,16.194624,14.9300165,13.286746,-1.0775654,-0.1960876,-0.62842715,62.081253,86.15625,129.91876,watch_1
12306775639462,16.194624,14.9300165,13.286746,2.3616033,-0.13500112,0.08872811,62.081253,86.15625,129.91876,watch_1
12306765466702,4.0438704,-8.146365,10.262218,-1.0775654,-0.1960876,-0.62842715,62.081253,86.15625,129.91876,watch_1
12306785639410,4.0438704,-8.146365,10.262218,-1.0775654,-0.1960876,-0.62842715,61.125004,85.950005,127.65,watch_1
12306784540712,9.102298,-4.365705,3.8446677,0.59253883,-0.29626942,-0.32788166,61.125004,85.950005,127.65,watch_1
12306779577952,9.102298,-4.365705,3.8446677,0.59253883,-0.29626942,-0.32788166,59.662502,84.262505,131.4375,watch_1
12306795639358,9.102298,-4.365705,3.8446677,0.59253883,-0.29626942,-0.32788166,59.662502,84.262505,131.4375,watch_1
12306805639306,9.102298,-4.365705,3.8446677,0.59253883,-0.29626942,-0.32788166,61.10625,85.950005,127.068756,watch_1
12306803583733,12.49532,6.1627145,5.4000025,2.0683882,0.032375835,-0.36331183,61.10625,85.950005,127.068756,watch_1
12306798620973,12.49532,6.1627145,5.4000025,2.0683882,0.032375835,-0.36331183,61.10625,85.950005,127.068756,watch_1
12306815639254,12.49532,6.1627145,5.4000025,2.0683882,0.032375835,-0.36331183,60.093754,87.675,126.637505,watch_1
12306825639202,12.49532,6.1627145,5.4000025,2.0683882,0.032375835,-0.36331183,62.006252,86.231255,125.981255,watch_1
12306822656702,6.5228343,1.5349957,6.261419,0.35674503,0.18264857,0.14370593,62.006252,86.231255,125.981255,watch_1
12306817693941,6.5228343,1.5349957,6.261419,0.35674503,0.18264857,0.14370593,62.006252,86.231255,125.981255,watch_1
12306835639150,6.5228343,1.5349957,6.261419,0.35674503,0.18264857,0.14370593,60.975002,86.08125,126.9,watch_1
12306845639098,6.5228343,1.5349957,6.261419,0.35674503,0.18264857,0.14370593,60.131252,84.9375,128.51251,watch_1
12306836767952,8.063812,-2.2169502,5.486144,-0.2614501,0.01282816,0.080176,60.131252,84.9375,128.51251,watch_1
12306841730712,8.063812,-2.2169502,5.486144,-0.2614501,0.01282816,0.080176,60.131252,84.9375,128.51251,watch_1
12306865638993,8.063812,-2.2169502,5.486144,-0.2614501,0.01282816,0.080176,62.850002,85.481255,126.881256,watch_1
12306855639046,8.063812,-2.2169502,5.486144,-0.2614501,0.01282816,0.080176,62.850002,85.481255,126.881256,watch_1
12306860803733,9.006584,-0.45583272,5.6536417,0.48624837,0.029932374,0.21334453,62.850002,85.481255,126.881256,watch_1
12306855840973,9.006584,-0.45583272,5.6536417,0.48624837,0.029932374,0.21334453,62.850002,85.481255,126.881256,watch_1
12306875638941,9.006584,-0.45583272,5.6536417,0.48624837,0.029932374,0.21334453,60.6375,87.01875,127.631256,watch_1
12306885638889,9.006584,-0.45583272,5.6536417,0.48624837,0.029932374,0.21334453,60.412502,86.418755,127.2375,watch_1
12306874914931,8.346166,-0.57547385,5.667999,0.34452772,0.049480047,0.3526217,60.412502,86.418755,127.2375,watch_1
12306879877691,8.346166,-0.57547385,5.667999,0.34452772,0.049480047,0.3526217,60.412502,86.418755,127.2375,watch_1
12306895638837,8.346166,-0.57547385,5.667999,0.34452772,0.049480047,0.3526217,61.593754,86.137505,127.8375,watch_1
12306905638785,8.346166,-0.57547385,5.667999,0.34452772,0.049480047,0.3526217,59.41875,85.443756,127.65,watch_1
12306898950712,8.073383,-1.6857436,4.060022,-0.0537561,0.14966187,0.41615164,59.41875,85.443756,127.65,watch_1
12306915638733,8.073383,-1.6857436,4.060022,-0.0537561,0.14966187,0.41615164,60.318752,85.40625,128.34375,watch_1
12306893987952,8.073383,-1.6857436,4.060022,-0.0537561,0.14966187,0.41615164,60.318752,85.40625,128.34375,watch_1
12306925638681,8.073383,-1.6857436,4.060022,-0.0537561,0.14966187,0.41615164,61.518753,87.0,126.58125,watch_1
12306918024723,7.5469627,-2.1068804,2.6626134,-0.0537561,0.14966187,0.41615164,61.518753,87.0,126.58125,watch_1
12306913061962,7.5469627,-2.1068804,2.6626134,-0.11117739,0.42699447,0.4149299,61.518753,87.0,126.58125,watch_1
12306935638629,7.5469627,-2.1068804,2.6626134,-0.11117739,0.42699447,0.4149299,60.80625,86.231255,125.26875,watch_1
12306945638577,6.3122663,-1.7240287,3.1076784,-0.16004658,0.6860011,0.48456848,61.2,86.981255,125.9625,watch_1
12306932134931,6.3122663,-1.7240287,3.1076784,-0.16004658,0.6860011,0.48456848,62.081253,86.793755,126.525,watch_1
12306955638525,6.3122663,-1.7240287,3.1076784,-0.17226386,0.8179479,0.6543889,64.275,85.89375,129.0375,watch_1
12306965638473,5.608776,-1.7623138,3.6532419,-0.17226386,0.8179479,0.6543889,64.275,85.89375,129.0375,watch_1
12306951177952,5.608776,-1.7623138,3.6532419,-0.17226386,0.8179479,0.6543889,63.562504,86.231255,128.625,watch_1
12306975638421,5.608776,-1.7623138,3.6532419,-0.17226386,0.8179479,0.6543889,63.975002,87.450005,127.68751,watch_1
12306985638368,5.608776,-1.7623138,3.6532419,-0.17226386,0.8179479,0.6543889,63.975002,87.450005,127.68751,watch_1
12306956140712,5.608776,-1.7623138,3.6532419,-0.17226386,0.8179479,0.6543889,63.562504,86.231255,128.625,watch_1
12306937097691,5.680561,-2.32702,3.5288153,-0.17226386,0.8179479,0.6543889,63.975002,87.450005,127.68751,watch_1
12306975213733,5.680561,-2.32702,3.5288153,-0.17226386,0.8179479,0.6543889,63.975002,87.450005,127.68751,watch_1
12306970250973,5.680561,-2.32702,3.5288153,-0.13805544,0.8704823,0.8620829,63.975002,87.450005,127.68751,watch_1
12306995638316,5.680561,-2.32702,3.5288153,-0.13805544,0.8704823,0.8620829,64.387505,85.481255,129.675,watch_1
12306994287691,5.651847,-2.3461626,2.8205397,-0.13805544,0.8704823,0.8620829,64.387505,85.481255,129.675,watch_1
12306989324931,5.651847,-2.3461626,2.8205397,-0.19669846,0.98776835,1.06489,64.387505,85.481255,129.675,watch_1
12307005638264,5.651847,-2.3461626,2.8205397,-0.19669846,0.98776835,1.06489,65.025,82.9875,130.425,watch_1
12307015638212,5.651847,-2.3461626,2.8205397,-0.19669846,0.98776835,1.06489,64.65,86.662506,128.41876,watch_1
12307013360712,5.3790655,-1.4608182,1.2221341,-0.19669846,0.98776835,1.06489,64.65,86.662506,128.41876,watch_1
12307008397952,5.3790655,-1.4608182,1.2221341,-0.4874701,1.2308925,1.2652537,64.8,89.86875,125.512505,watch_1
12307025638160,5.3790655,-1.4608182,1.2221341,-0.4874701,1.2308925,1.2652537,64.8,89.86875,125.512505,watch_1
12307035638108,5.3790655,-1.4608182,1.2221341,-0.4874701,1.2308925,1.2652537,63.54375,89.5875,124.2375,watch_1
12307032434723,5.0775695,-1.8005991,0.72442704,-0.4874701,1.2308925,1.2652537,63.54375,89.5875,124.2375,watch_1
12307027471962,5.0775695,-1.8005991,0.72442704,-1.1557561,1.4752384,1.5450298,63.54375,89.5875,124.2375,watch_1
12307045638056,5.0775695,-1.8005991,0.72442704,-1.1557561,1.4752384,1.5450298,67.6125,91.40625,123.506256,watch_1
12307055638004,5.0775695,-1.8005991,0.72442704,-1.1557561,1.4752384,1.5450298,66.318756,90.525,123.58125,watch_1
12307051507691,5.7427745,-3.6382868,1.9974087,-1.1557561,1.4752384,1.5450298,66.318756,90.525,123.58125,watch_1
12307046544931,5.7427745,-3.6382868,1.9974087,-2.3921466,1.6377285,1.8248059,66.318756,90.525,123.58125,watch_1
12307065637952,5.7427745,-3.6382868,1.9974087,-2.3921466,1.6377285,1.8248059,67.387505,94.6125,124.33125,watch_1
