# Session ID: 20250816_085408
# Device ID: left
# Start Time: 1755327248950
# Sample Count: 2085
# Generated by Watch IMU Recorder
timestamp,accel_x,accel_y,accel_z,gyro_x,gyro_y,gyro_z,mag_x,mag_y,mag_z,watch_name
12324424090087,0.40677986,-0.24526432,9.783653,0.0073303776,-0.017715078,-0.093309596,78.787506,100.162506,126.24375,left
12324476354931,0.3493521,-0.24047868,9.8219385,-0.0012217296,-0.051923506,0.041080657,78.787506,100.162506,126.24375,left
12324481317691,0.3493521,-0.24047868,9.8219385,-0.0012217296,-0.051923506,0.041080657,78.787506,100.162506,126.24375,left
12324462244723,0.3493521,-0.24047868,9.8219385,-0.0012217296,-0.051923506,0.041080657,78.787506,100.162506,126.24375,left
12324443170712,0.3493521,-0.24047868,9.8219385,-0.0012217296,-0.051923506,0.041080657,78.787506,100.162506,126.24375,left
12324500390712,0.35413775,-0.2644069,9.783653,-0.0012217296,-0.051923506,0.041080657,78.787506,100.162506,126.24375,left
12324495427952,0.35413775,-0.2644069,9.783653,-0.037873615,-0.055588696,0.042302385,78.787506,100.162506,126.24375,left
12324519464723,0.38285163,-0.2213361,9.740582,-0.042760536,-0.055588696,0.043524116,78.787506,100.162506,126.24375,left
12324514501962,0.38285163,-0.2213361,9.740582,-0.042760536,-0.055588696,0.043524116,78.787506,100.162506,126.24375,left
12324530974202,0.38285163,-0.2213361,9.740582,-0.042760536,-0.055588696,0.043524116,93.1125,74.55,108.9,left
12324540974150,0.38285163,-0.2213361,9.740582,-0.042760536,-0.055588696,0.043524116,94.40625,75.262505,110.287506,left
12324533544931,0.38285163,-0.2213361,9.740582,-0.014660755,-0.049480047,0.042302385,94.40625,75.262505,110.287506,left
12324538507691,0.44027936,-0.12562318,9.759726,-0.014660755,-0.049480047,0.042302385,92.8125,74.512505,108.8625,left
12324550974098,0.44027936,-0.12562318,9.759726,-0.014660755,-0.049480047,0.042302385,92.8125,74.512505,108.8625,left
12324560974046,0.44027936,-0.12562318,9.759726,-0.014660755,-0.049480047,0.042302385,94.350006,76.762505,105.918755,left
12324557580712,0.51206404,-0.106480606,9.817153,-0.014660755,-0.049480047,0.042302385,94.350006,76.762505,105.918755,left
12324552617952,0.51206404,-0.106480606,9.817153,0.0024434591,-0.043371398,0.042302385,94.350006,76.762505,105.918755,left
12324570973993,0.51206404,-0.106480606,9.817153,0.0024434591,-0.043371398,0.042302385,92.55,76.9875,104.68125,left
12324580973941,0.51206404,-0.106480606,9.817153,0.0024434591,-0.043371398,0.042302385,94.537506,78.506256,105.3375,left
12324576654723,0.5838487,-0.18305093,9.817153,0.03054324,-0.03604102,0.039858926,94.537506,78.506256,105.3375,left
12324571691962,0.5838487,-0.18305093,9.817153,0.03054324,-0.03604102,0.039858926,91.537506,78.543755,104.83125,left
12324590973889,0.5838487,-0.18305093,9.817153,0.03054324,-0.03604102,0.039858926,91.537506,78.543755,104.83125,left
12324600973837,0.5838487,-0.18305093,9.817153,0.03054324,-0.03604102,0.039858926,91.350006,76.9875,103.668755,left
12324595727691,0.61734825,-0.020338992,9.917651,0.062308207,-0.023823727,0.0386372,91.350006,76.9875,103.668755,left
12324590764931,0.61734825,-0.020338992,9.917651,0.062308207,-0.023823727,0.0386372,91.350006,76.9875,103.668755,left
12324610973785,0.61734825,-0.020338992,9.917651,0.062308207,-0.023823727,0.0386372,91.4625,77.981255,103.87501,left
12324620973733,0.61734825,-0.020338992,9.917651,0.062308207,-0.023823727,0.0386372,91.631256,78.15,104.025,left
12324614801702,0.60777694,0.05623133,9.994222,-0.0036651888,-0.01282816,0.03375028,91.631256,78.15,104.025,left
12324609838941,0.60777694,0.05623133,9.994222,-0.0036651888,-0.01282816,0.03375028,91.631256,78.15,104.025,left
12324630973681,0.60777694,0.05623133,9.994222,-0.0036651888,-0.01282816,0.03375028,93.75,79.51875,105.731255,left
12324640973629,0.60777694,0.05623133,9.994222,-0.0036651888,-0.01282816,0.03375028,95.25,76.725006,106.4625,left
12324628911962,0.6269195,-0.2213361,9.865009,-0.100181825,-0.0042760535,0.019089524,95.25,76.725006,106.4625,left
12324633874723,0.6269195,-0.2213361,9.865009,-0.100181825,-0.0042760535,0.019089524,95.25,76.725006,106.4625,left
12324650973577,0.6269195,-0.2213361,9.865009,-0.100181825,-0.0042760535,0.019089524,91.93125,79.6125,103.762505,left
12324660973525,0.6269195,-0.2213361,9.865009,-0.100181825,-0.0042760535,0.019089524,92.11875,78.4875,104.475006,left
12324652948733,0.6364908,-0.4031906,9.716655,-0.100181825,-0.0042760535,0.019089524,92.11875,78.4875,104.475006,left
12324647985973,0.6364908,-0.4031906,9.716655,-0.06475167,0.016493348,0.00320704,92.11875,78.4875,104.475006,left
12324670973473,0.6364908,-0.4031906,9.716655,-0.06475167,0.016493348,0.00320704,92.25,78.693756,102.28126,left
12324680973421,0.6364908,-0.4031906,9.716655,-0.06475167,0.016493348,0.00320704,91.818756,78.61875,103.256256,left
12324672021702,0.5982057,-0.2835495,9.802796,-0.06475167,0.016493348,0.00320704,91.818756,78.61875,103.256256,left
12324667058941,0.5982057,-0.2835495,9.802796,0.042760536,0.043371398,-0.0151189035,91.818756,78.61875,103.256256,left
12324690973368,0.5982057,-0.2835495,9.802796,0.042760536,0.043371398,-0.0151189035,93.318756,78.4875,104.756256,left
12324700973316,0.57427746,-0.2117648,9.778868,0.042760536,0.043371398,-0.0151189035,93.3,78.20625,105.075005,left
12324691095712,0.57427746,-0.2117648,9.778868,0.10140356,0.053145237,-0.038331766,93.3,78.20625,105.075005,left
12324686132952,0.57427746,-0.2117648,9.778868,0.10140356,0.053145237,-0.038331766,93.3,78.20625,105.075005,left
12324710973264,0.57427746,-0.2117648,9.778868,0.10140356,0.053145237,-0.038331766,94.40625,80.193756,104.568756,left
12324705175973,0.57427746,-0.2117648,9.778868,0.11606431,0.06291907,-0.046883874,94.40625,80.193756,104.568756,left
12324724248941,0.57427746,-0.2117648,9.778868,0.10384701,0.06658426,-0.04444041,94.40625,80.193756,104.568756,left
12324743322952,0.57427746,-0.2117648,9.778868,0.074525505,0.06291907,-0.038331766,94.40625,80.193756,104.568756,left
12324762395973,0.57427746,-0.2117648,9.778868,0.11117739,0.07269291,-0.035888307,94.40625,80.193756,104.568756,left
12324781469931,0.57427746,-0.2117648,9.778868,0.11117739,0.07269291,-0.035888307,94.40625,80.193756,104.568756,left
12324800542952,0.57427746,-0.2117648,9.778868,0.1197295,0.08613193,-0.029779658,94.40625,80.193756,104.568756,left
12324819616962,0.57427746,-0.2117648,9.778868,0.13072506,0.09590577,-0.021227552,94.40625,80.193756,104.568756,left
12324838689931,0.57427746,-0.2117648,9.778868,0.13316852,0.09590577,-0.0151189035,94.40625,80.193756,104.568756,left
12324857732952,0.57427746,-0.2117648,9.778868,0.09529491,0.08002329,-0.013897174,94.40625,80.193756,104.568756,left
12324720973212,0.57427746,-0.2117648,9.778868,0.07574723,0.056810424,-0.016340632,91.36875,76.950005,105.7125,left
12324876806962,0.57427746,-0.2117648,9.778868,0.07574723,0.056810424,-0.016340632,91.36875,76.950005,105.7125,left
12324730973160,0.57427746,-0.2117648,9.778868,0.07574723,0.056810424,-0.016340632,93.693756,79.256256,104.43751,left
12324740973108,0.57427746,-0.2117648,9.778868,0.07574723,0.056810424,-0.016340632,93.28125,79.65,103.481255,left
12324750973056,0.57427746,-0.2117648,9.778868,0.07574723,0.056810424,-0.016340632,93.1875,79.106255,101.475006,left
12324760973004,0.57427746,-0.2117648,9.778868,0.07574723,0.056810424,-0.016340632,93.1875,79.106255,101.475006,left
12324770972952,0.57427746,-0.2117648,9.778868,0.07574723,0.056810424,-0.016340632,92.850006,80.043755,102.65626,left
12324780972900,0.57427746,-0.2117648,9.778868,0.07574723,0.056810424,-0.016340632,93.3,80.100006,102.412506,left
12324790972848,0.57427746,-0.2117648,9.778868,0.07574723,0.056810424,-0.016340632,92.231255,79.9875,101.287506,left
12324800972796,0.57427746,-0.2117648,9.778868,0.07574723,0.056810424,-0.016340632,92.45625,79.3125,101.08125,left
12324810972743,0.57427746,-0.2117648,9.778868,0.07574723,0.056810424,-0.016340632,93.05625,80.8125,100.425,left
12324820972691,0.57427746,-0.2117648,9.778868,0.07574723,0.056810424,-0.016340632,93.05625,80.8125,100.425,left
12324830972639,0.57427746,-0.2117648,9.778868,0.07574723,0.056810424,-0.016340632,92.34375,79.725006,101.175,left
12324840972587,0.57427746,-0.2117648,9.778868,0.07574723,0.056810424,-0.016340632,92.793755,81.20625,100.36875,left
12324850972535,0.57427746,-0.2117648,9.778868,0.07574723,0.056810424,-0.016340632,92.793755,81.20625,100.36875,left
12324860972483,0.57427746,-0.2117648,9.778868,0.07574723,0.056810424,-0.016340632,92.418755,80.775,99.05625,left
12324870972431,0.57427746,-0.2117648,9.778868,0.07574723,0.056810424,-0.016340632,91.256256,80.86875,100.36875,left
12324880972379,0.57427746,-0.2117648,9.778868,0.07574723,0.056810424,-0.016340632,93.61875,80.475006,100.387505,left
12324890972327,0.57427746,-0.2117648,9.778868,0.07574723,0.056810424,-0.016340632,90.8625,79.96875,99.975006,left
12324900972275,0.57427746,-0.2117648,9.778868,0.07574723,0.056810424,-0.016340632,91.33125,80.325005,99.56251,left
12324910972223,0.57427746,-0.2117648,9.778868,0.07574723,0.056810424,-0.016340632,92.64375,81.356255,99.168755,left
12324920972171,0.57427746,-0.2117648,9.778868,0.07574723,0.056810424,-0.016340632,92.8125,78.506256,101.64375,left
12324710138733,0.53599226,-0.111266255,9.769297,0.07574723,0.056810424,-0.016340632,92.8125,78.506256,101.64375,left
12324729211702,0.526421,-0.010767702,9.812367,0.07574723,0.056810424,-0.016340632,92.8125,78.506256,101.64375,left
12324767358733,0.6412765,-0.14955142,9.8219385,0.07574723,0.056810424,-0.016340632,92.8125,78.506256,101.64375,left
12324748285712,0.6412765,-0.14955142,9.8219385,0.07574723,0.056810424,-0.016340632,92.8125,78.506256,101.64375,left
12324786432691,0.6412765,-0.14955142,9.8219385,0.07574723,0.056810424,-0.016340632,92.8125,78.506256,101.64375,left
12324805505712,0.59342,-0.08255238,9.927223,0.07574723,0.056810424,-0.016340632,92.8125,78.506256,101.64375,left
12324824579723,0.3493521,-0.08255238,9.922438,0.07574723,0.056810424,-0.016340632,92.8125,78.506256,101.64375,left
12324862695712,0.21535404,-0.07298109,9.83151,0.07574723,0.056810424,-0.016340632,92.8125,78.506256,101.64375,left
12324843652691,0.21535404,-0.07298109,9.83151,0.07574723,0.056810424,-0.016340632,92.8125,78.506256,101.64375,left
12324881769723,0.13399807,-0.25962126,9.592228,0.07574723,0.056810424,-0.016340632,92.8125,78.506256,101.64375,left
12324900842691,0.12921242,-0.29790643,9.482158,0.07574723,0.056810424,-0.016340632,92.8125,78.506256,101.64375,left
12324895879931,0.12921242,-0.29790643,9.482158,0.24556763,0.07269291,-0.04444041,92.8125,78.506256,101.64375,left
12324914953941,0.12921242,-0.29790643,9.482158,0.24556763,0.07269291,-0.04444041,92.8125,78.506256,101.64375,left
12324930972118,0.11964113,-0.0011964113,9.654441,0.24556763,0.07269291,-0.04444041,91.875,79.6875,99.675,left
12324919916702,0.11964113,-0.0011964113,9.654441,0.24556763,0.07269291,-0.04444041,91.875,79.6875,99.675,left
12324940972066,0.11964113,-0.0011964113,9.654441,0.24556763,0.07269291,-0.04444041,92.418755,79.012505,101.700005,left
12324934026962,0.11964113,-0.0011964113,9.654441,0.26389357,0.07269291,-0.046883874,92.418755,79.012505,101.700005,left
12324938989723,0.14356937,0.23330021,9.778868,0.26389357,0.07269291,-0.046883874,93.1875,79.106255,101.475006,left
12324950972014,0.14356937,0.23330021,9.778868,0.26389357,0.07269291,-0.046883874,93.1875,79.106255,101.475006,left
12324960971962,0.14356937,0.23330021,9.778868,0.26389357,0.07269291,-0.046883874,93.693756,78.4875,100.87501,left
12324958063733,0.18185452,0.3912265,9.8219385,0.26389357,0.07269291,-0.046883874,93.693756,78.4875,100.87501,left
12324953100973,0.18185452,0.3912265,9.8219385,0.20525056,0.054366965,-0.035888307,93.693756,78.4875,100.87501,left
12324970971910,0.18185452,0.3912265,9.8219385,0.20525056,0.054366965,-0.035888307,95.15625,77.606255,104.175,left
12324980971858,0.29192436,0.45822555,9.75494,0.20525056,0.054366965,-0.035888307,95.15625,77.606255,104.175,left
12324977136702,0.29192436,0.45822555,9.75494,0.20525056,0.054366965,-0.035888307,95.15625,77.606255,104.175,left
12324972173941,0.29192436,0.45822555,9.75494,0.14660755,0.037262753,-0.031001387,95.15625,77.606255,104.175,left
12324990971806,0.38285163,0.4534399,9.817153,0.14660755,0.037262753,-0.031001387,92.64375,76.74375,103.106255,left
12325000971754,0.38285163,0.4534399,9.817153,0.118507765,0.027488915,-0.02489274,92.64375,76.74375,103.106255,left
12324991247952,0.38285163,0.4534399,9.817153,0.118507765,0.027488915,-0.02489274,94.387505,77.53125,103.36875,left
12325010971702,0.38285163,0.4534399,9.817153,0.118507765,0.027488915,-0.02489274,92.64375,76.74375,103.106255,left
12324996210712,0.38285163,0.4534399,9.817153,0.118507765,0.027488915,-0.02489274,94.387505,77.53125,103.36875,left
12325015283733,0.42592242,0.19980069,9.707084,0.10506874,0.009162972,-0.02489274,96.225006,76.162506,105.600006,left
12325030971598,0.42592242,0.19980069,9.707084,0.10506874,0.009162972,-0.02489274,96.225006,76.162506,105.600006,left
12325010320973,0.42592242,0.19980069,9.707084,0.10506874,0.009162972,-0.02489274,96.225006,76.162506,105.600006,left
12325020971650,0.42592242,0.19980069,9.707084,0.118507765,0.027488915,-0.02489274,92.64375,76.74375,103.106255,left
12325040971546,0.42592242,0.19980069,9.707084,0.10506874,0.009162972,-0.02489274,96.225006,76.162506,105.600006,left
12325034326702,0.55034924,-0.12083755,9.57787,0.20158538,0.0018325944,-0.04444041,96.225006,76.162506,105.600006,left
12325053400712,0.55513483,0.3290131,9.912866,0.31276277,0.026267186,-0.05299252,93.84375,73.59375,105.881256,left
12325050971493,0.55034924,-0.12083755,9.57787,0.20158538,0.0018325944,-0.04444041,93.84375,73.74375,107.475006,left
12325060971441,0.55513483,0.3290131,9.912866,0.20158538,0.0018325944,-0.04444041,93.84375,73.59375,105.881256,left
12325029363941,0.55034924,-0.12083755,9.57787,0.20158538,0.0018325944,-0.04444041,94.59375,73.36875,107.006256,left
12325080971337,0.5024927,0.60658056,10.133006,0.21380267,0.025045456,-0.059101168,96.43125,73.74375,107.475006,left
12325072473733,0.5024927,0.60658056,10.133006,0.21380267,0.025045456,-0.059101168,96.43125,73.74375,107.475006,left
12325048437952,0.55513483,0.3290131,9.912866,0.31276277,0.026267186,-0.05299252,92.887505,72.8625,107.15626,left
12325090971285,0.5024927,0.60658056,10.133006,0.21380267,0.025045456,-0.059101168,94.40625,74.49375,106.725006,left
12325070971389,0.5024927,0.60658056,10.133006,0.21380267,0.025045456,-0.059101168,94.40625,74.49375,106.725006,left
12325100971233,0.46899325,0.357727,9.960723,0.02687805,0.007941242,-0.060322896,94.40625,74.49375,106.725006,left
12325086583941,0.46899325,0.357727,9.960723,0.02687805,0.007941242,-0.060322896,94.40625,74.49375,106.725006,left
12325067510973,0.46899325,0.357727,9.960723,0.02687805,0.007941242,-0.060322896,94.40625,74.49375,106.725006,left
12325110971181,0.46899325,0.357727,9.960723,0.02687805,0.007941242,-0.060322896,95.4375,75.787506,105.56251,left
12325091546702,0.36370903,0.21894327,9.783653,0.02687805,0.007941242,-0.060322896,95.4375,75.787506,105.56251,left
12325110620712,0.36370903,0.21894327,9.783653,0.02687805,0.007941242,-0.060322896,95.4375,75.787506,105.56251,left
12325105657952,0.36370903,0.21894327,9.783653,0.0,-0.0018325944,-0.05665771,95.4375,74.475006,106.68751,left
12325130971077,0.36370903,0.21894327,9.783653,0.0,-0.0018325944,-0.05665771,92.512505,72.28125,106.14375,left
12325120971129,0.36370903,0.21894327,9.783653,0.0,-0.0018325944,-0.05665771,92.512505,72.28125,106.14375,left
12325129693733,0.32063824,0.20458634,9.630513,0.11117739,-0.01527162,-0.06276636,92.512505,72.28125,106.14375,left
12325124730973,0.32063824,0.20458634,9.630513,0.11117739,-0.01527162,-0.06276636,95.475006,71.775,108.28126,left
12325140971025,0.32063824,0.20458634,9.630513,0.11117739,-0.01527162,-0.06276636,95.475006,71.775,108.28126,left
12325150970973,0.32063824,0.20458634,9.630513,0.11117739,-0.01527162,-0.06276636,95.4,73.89375,107.62501,left
12325148767691,0.32063824,0.22851457,9.587442,0.11117739,-0.01527162,-0.06276636,95.4,73.89375,107.62501,left
12325143804931,0.32063824,0.22851457,9.587442,0.23090689,-0.025045456,-0.06887501,95.3625,73.950005,105.3,left
12325160970921,0.32063824,0.22851457,9.587442,0.23090689,-0.025045456,-0.06887501,95.3625,73.950005,105.3,left
12325170970868,0.32063824,0.22851457,9.587442,0.23090689,-0.025045456,-0.06887501,93.975006,73.4625,105.76875,left
12325162877952,0.29671,0.4103691,9.764511,0.284663,-0.016493348,-0.072540194,93.975006,73.4625,105.76875,left
12325167840712,0.29671,0.4103691,9.764511,0.284663,-0.016493348,-0.072540194,95.8125,75.09375,106.68751,left
12325180970816,0.29671,0.4103691,9.764511,0.284663,-0.016493348,-0.072540194,95.8125,75.09375,106.68751,left
12325190970764,0.29671,0.4103691,9.764511,0.284663,-0.016493348,-0.072540194,94.481255,75.543755,104.606255,left
12325186883733,0.22971097,0.71665037,9.951151,0.20769402,-0.007941242,-0.06276636,94.481255,75.543755,104.606255,left
12325181920973,0.22971097,0.71665037,9.951151,0.20769402,-0.007941242,-0.06276636,94.481255,75.543755,104.606255,left
12325200970712,0.22971097,0.71665037,9.951151,0.20769402,-0.007941242,-0.06276636,93.15,74.231255,104.43751,left
12325210970660,0.22971097,0.71665037,9.951151,0.20769402,-0.007941242,-0.06276636,92.756256,74.90625,104.175,left
12325205957691,0.22492532,0.71665037,9.879367,0.021991132,-0.020158539,-0.049327333,92.756256,74.90625,104.175,left
12325200994931,0.22492532,0.71665037,9.879367,0.021991132,-0.020158539,-0.049327333,92.756256,74.90625,104.175,left
12325220970608,0.22492532,0.71665037,9.879367,0.021991132,-0.020158539,-0.049327333,93.5625,75.28125,104.381256,left
12325230970556,0.22492532,0.71665037,9.879367,0.021991132,-0.020158539,-0.049327333,94.18125,74.4,102.93751,left
12325225030712,0.2009971,0.40079778,9.692726,0.021991132,-0.020158539,-0.049327333,94.18125,74.4,102.93751,left
12325220067952,0.2009971,0.40079778,9.692726,-0.07696896,-0.029932374,-0.038331766,94.18125,74.4,102.93751,left
12325240970504,0.2009971,0.40079778,9.692726,-0.07696896,-0.029932374,-0.038331766,95.49375,76.51875,104.475006,left
12325244104723,0.17228323,0.22851457,9.61137,-0.07696896,-0.029932374,-0.038331766,94.162506,74.4375,101.475006,left
12325250970452,0.17228323,0.22851457,9.61137,-0.07696896,-0.029932374,-0.038331766,94.162506,74.4375,101.475006,left
12325239141962,0.17228323,0.22851457,9.61137,0.010995566,-0.031154104,-0.033444848,94.162506,74.4375,101.475006,left
12325260970400,0.17228323,0.22851457,9.61137,0.010995566,-0.031154104,-0.033444848,92.925,76.668755,101.981255,left
12325270970348,0.17228323,0.22851457,9.61137,0.010995566,-0.031154104,-0.033444848,94.275,78.43125,100.51875,left
12325263177691,0.15792629,0.38644084,9.778868,0.010995566,-0.031154104,-0.033444848,94.275,78.43125,100.51875,left
12325258214931,0.15792629,0.38644084,9.778868,0.12950334,-0.028710645,-0.02489274,94.275,78.43125,100.51875,left
12325280970296,0.15792629,0.38644084,9.778868,0.12950334,-0.028710645,-0.02489274,93.95625,76.5,102.56251,left
12325290970243,0.15792629,0.38644084,9.778868,0.12950334,-0.028710645,-0.02489274,92.887505,76.387505,101.71876,left
12325277288941,0.18664017,0.45822555,9.807582,0.16371176,-0.033597562,-0.028557928,92.887505,76.387505,101.71876,left
12325282251702,0.18664017,0.45822555,9.807582,0.16371176,-0.033597562,-0.028557928,92.887505,76.387505,101.71876,left
12325300970191,0.18664017,0.45822555,9.807582,0.16371176,-0.033597562,-0.028557928,92.025,75.28125,102.01875,left
12325310970139,0.18664017,0.45822555,9.807582,0.16371176,-0.033597562,-0.028557928,92.193756,75.412506,102.9,left
12325296361962,0.21535404,0.7788638,9.879367,0.14416409,-0.025045456,-0.028557928,92.193756,75.412506,102.9,left
12325301324723,0.21535404,0.7788638,9.879367,0.14416409,-0.025045456,-0.028557928,92.193756,75.412506,102.9,left
12325320970087,0.21535404,0.7788638,9.879367,0.14416409,-0.025045456,-0.028557928,93.28125,75.8625,101.9625,left
12325320398733,0.22971097,1.0133604,9.922438,0.03054324,-0.026267186,-0.013897174,93.28125,75.8625,101.9625,left
12325315435973,0.22971097,1.0133604,9.922438,0.03054324,-0.026267186,-0.013897174,93.28125,75.8625,101.9625,left
12325330970035,0.22971097,1.0133604,9.922438,0.03054324,-0.026267186,-0.013897174,93.1125,76.8,103.59376,left
12325340969983,0.22971097,1.0133604,9.922438,0.03054324,-0.026267186,-0.013897174,93.24375,75.58125,101.700005,left
12325334478941,0.22971097,1.0133604,9.922438,-0.1404989,-0.045814857,0.011759147,93.24375,75.58125,101.700005,left
12325350969931,0.2009971,0.97507524,9.946365,-0.1404989,-0.045814857,0.011759147,92.981255,77.08125,102.975006,left
12325339441702,0.2009971,0.97507524,9.946365,-0.1404989,-0.045814857,0.011759147,92.981255,77.08125,102.975006,left
12325360969879,0.2009971,0.97507524,9.946365,-0.1404989,-0.045814857,0.011759147,92.100006,77.418755,101.381256,left
12325353551962,0.15314065,0.62093747,9.702297,-0.24068072,-0.07147118,0.03252855,92.100006,77.418755,101.381256,left
12325358514723,0.15314065,0.62093747,9.702297,-0.24068072,-0.07147118,0.03252855,92.100006,77.418755,101.381256,left
12325370969827,0.15314065,0.62093747,9.702297,-0.24068072,-0.07147118,0.03252855,92.25,77.606255,100.21876,left
12325380969775,0.15314065,0.62093747,9.702297,-0.24068072,-0.07147118,0.03252855,92.325005,76.74375,101.475006,left
12325372625973,0.2105684,0.041874398,9.544372,-0.15515965,-0.09346231,0.03375028,92.325005,76.74375,101.475006,left
12325377588733,0.2105684,0.041874398,9.544372,-0.15515965,-0.09346231,0.03375028,93.975006,76.8,101.793755,left
12325390969723,0.2105684,0.041874398,9.544372,-0.15515965,-0.09346231,0.03375028,93.975006,76.8,101.793755,left
12325400969671,0.2105684,0.041874398,9.544372,-0.15515965,-0.09346231,0.03375028,93.05625,76.537506,101.86875,left
12325396661702,0.2536392,0.041874398,9.582657,0.05253437,-0.0971275,0.03252855,93.05625,76.537506,101.86875,left
12325391698941,0.2536392,0.041874398,9.582657,0.05253437,-0.0971275,0.03252855,93.05625,76.537506,101.86875,left
12325410969618,0.2536392,0.041874398,9.582657,0.05253437,-0.0971275,0.03252855,94.350006,75.99375,102.075005,left
12325420969566,0.2536392,0.041874398,9.582657,0.05253437,-0.0971275,0.03252855,93.918755,76.21875,102.15,left
12325415735712,0.32063824,0.51565325,9.778868,0.05253437,-0.0971275,0.03252855,93.918755,76.21875,102.15,left
12325410772952,0.32063824,0.51565325,9.778868,0.16493349,-0.083688475,0.03375028,93.918755,76.21875,102.15,left
12325430969514,0.32063824,0.51565325,9.778868,0.16493349,-0.083688475,0.03375028,92.512505,78.450005,101.90626,left
12325440969462,0.32063824,0.51565325,9.778868,0.16493349,-0.083688475,0.03375028,93.4875,77.90625,100.762505,left
12325429845973,0.41635114,0.78364944,9.87458,0.056199558,-0.08124501,0.03497201,92.9625,77.100006,101.3625,left
12325434808733,0.41635114,0.78364944,9.87458,0.056199558,-0.08124501,0.03497201,92.9625,77.100006,101.3625,left
12325450969410,0.41635114,0.78364944,9.87458,0.056199558,-0.08124501,0.03497201,92.9625,77.100006,101.3625,left
12325460969358,0.41635114,0.78364944,9.87458,0.056199558,-0.08124501,0.03497201,92.606255,76.481255,101.81251,left
12325453882691,0.5072784,0.5395815,9.778868,0.056199558,-0.08124501,0.03497201,92.606255,76.481255,101.81251,left
12325470969306,0.5072784,0.5395815,9.778868,-0.10384701,-0.091018856,0.026419902,92.512505,75.46875,102.918755,left
12325448919931,0.5072784,0.5395815,9.778868,-0.10384701,-0.091018856,0.026419902,92.512505,75.46875,102.918755,left
12325480969254,0.5072784,0.5395815,9.778868,-0.10384701,-0.091018856,0.026419902,92.90625,76.6875,100.96876,left
12325467992952,0.5072784,0.5395815,9.778868,0.0,-0.09468404,0.008093959,92.90625,76.6875,100.96876,left
12325490969202,0.67477596,0.11844472,9.486943,0.0,-0.09468404,0.008093959,91.481255,77.175,102.20625,left
12325472955712,0.67477596,0.11844472,9.486943,0.0,-0.09468404,0.008093959,91.481255,77.175,102.20625,left
12325500969150,0.67477596,0.11844472,9.486943,0.0,-0.09468404,0.008093959,92.9625,75.825005,101.64375,left
12325487066962,0.6652047,0.59700924,9.865009,0.21868959,-0.07024945,0.0044287695,92.9625,75.825005,101.64375,left
12325492029723,0.6652047,0.59700924,9.865009,0.21868959,-0.07024945,0.0044287695,92.9625,75.825005,101.64375,left
12325510969098,0.6652047,0.59700924,9.865009,0.21868959,-0.07024945,0.0044287695,92.9625,75.84375,101.193756,left
12325520969046,0.6652047,0.59700924,9.865009,0.21868959,-0.07024945,0.0044287695,92.568756,76.200005,101.850006,left
12325511072691,0.6125626,0.802792,9.94158,0.21868959,-0.07024945,0.0044287695,92.568756,76.200005,101.850006,left
12325506109931,0.6125626,0.802792,9.94158,0.194255,-0.08002329,-0.0004581486,92.568756,76.200005,101.850006,left
12325530968993,0.6125626,0.802792,9.94158,0.194255,-0.08002329,-0.0004581486,93.0,76.293755,100.14375,left
12325525182952,0.6125626,0.802792,9.94158,0.08429934,-0.089797124,-0.005345067,93.20625,76.40625,102.46876,left
12325540968941,0.6125626,0.802792,9.94158,0.08429934,-0.089797124,-0.005345067,93.20625,76.40625,102.46876,left
12325530145712,0.61734825,0.59700924,9.711869,0.08429934,-0.089797124,-0.005345067,93.20625,76.40625,102.46876,left
12325550968889,0.61734825,0.59700924,9.711869,0.08429934,-0.089797124,-0.005345067,92.25,76.162506,101.512505,left
12325544256962,0.61734825,0.59700924,9.711869,0.039095346,-0.07269291,-0.0016798781,92.25,76.162506,101.512505,left
12325549219723,0.57427746,0.90329057,9.97508,0.039095346,-0.07269291,-0.0016798781,92.25,76.162506,101.512505,left
12325560968837,0.57427746,0.90329057,9.97508,0.039095346,-0.07269291,-0.0016798781,92.418755,76.350006,100.950005,left
12325570968785,0.57427746,0.90329057,9.97508,0.039095346,-0.07269291,-0.0016798781,94.51875,76.3125,102.20625,left
12325568292691,0.46899325,0.97507524,10.061221,0.039095346,-0.07269291,-0.0016798781,94.51875,76.3125,102.20625,left
12325563329931,0.46899325,0.97507524,10.061221,-0.07941242,-0.09224058,0.010537418,92.512505,77.043755,101.90626,left
12325580968733,0.46899325,0.97507524,10.061221,-0.07941242,-0.09224058,0.010537418,92.512505,77.043755,101.90626,left
12325590968681,0.46899325,0.97507524,10.061221,-0.07941242,-0.09224058,0.010537418,92.11875,78.975006,101.381256,left
12325587366702,0.4019942,0.8602197,10.142577,-0.07941242,-0.09224058,0.010537418,92.11875,78.975006,101.381256,left
12325582403941,0.4019942,0.8602197,10.142577,-0.16737695,-0.13500112,0.026419902,92.11875,78.975006,101.381256,left
12325600968629,0.4019942,0.8602197,10.142577,-0.16737695,-0.13500112,0.026419902,92.4,76.03125,102.43125,left
12325610968577,0.4019942,0.8602197,10.142577,-0.16737695,-0.13500112,0.026419902,90.918755,75.95625,102.693756,left
12325606439723,0.29671,0.56829536,9.936794,-0.16737695,-0.13500112,0.026419902,90.918755,75.95625,102.693756,left
12325601476962,0.29671,0.56829536,9.936794,-0.21135922,-0.19364414,0.03375028,90.918755,75.95625,102.693756,left
12325620968525,0.29671,0.56829536,9.936794,-0.21135922,-0.19364414,0.03375028,91.668755,77.34375,102.637505,left
12325630968473,0.29671,0.56829536,9.936794,-0.21135922,-0.19364414,0.03375028,92.756256,74.90625,103.87501,left
12325625513733,0.40677986,0.36251262,9.683155,-0.22479823,-0.23029602,0.031306818,92.756256,74.90625,103.87501,left
12325620550973,0.40677986,0.36251262,9.683155,-0.22479823,-0.23029602,0.031306818,92.756256,74.90625,103.87501,left
12325640968421,0.40677986,0.36251262,9.683155,-0.22479823,-0.23029602,0.031306818,93.76875,77.30625,103.6125,left
12325650968368,0.40677986,0.36251262,9.683155,-0.22479823,-0.23029602,0.031306818,92.381256,77.15625,102.450005,left
12325644586702,0.49292147,0.09930214,9.396016,-0.124616414,-0.23884813,0.03619374,92.381256,77.15625,102.450005,left
12325639623941,0.49292147,0.09930214,9.396016,-0.124616414,-0.23884813,0.03619374,92.381256,77.15625,102.450005,left
12325660968316,0.49292147,0.09930214,9.396016,-0.124616414,-0.23884813,0.03619374,93.318756,77.418755,102.39375,left
12325670968264,0.49292147,0.09930214,9.396016,-0.124616414,-0.23884813,0.03619374,92.943756,76.631256,103.293755,left
12325663629723,0.55513483,0.3912265,9.486943,0.020769402,-0.21197008,0.03619374,92.943756,76.631256,103.293755,left
12325658666962,0.55513483,0.3912265,9.486943,0.020769402,-0.21197008,0.03619374,92.943756,76.631256,103.293755,left
12325680968212,0.55513483,0.3912265,9.486943,0.020769402,-0.21197008,0.03619374,91.93125,75.65625,103.12501,left
12325690968160,0.55513483,0.3912265,9.486943,0.020769402,-0.21197008,0.03619374,92.3625,75.58125,103.05,left
12325677739931,0.8039884,0.5204389,9.45823,0.05864302,-0.19120067,0.017867794,92.3625,75.58125,103.05,left
12325682702691,0.8039884,0.5204389,9.45823,0.05864302,-0.19120067,0.017867794,92.3625,75.58125,103.05,left
12325700968108,0.8039884,0.5204389,9.45823,0.05864302,-0.19120067,0.017867794,91.950005,74.2125,104.86875,left
12325710968056,0.8039884,0.5204389,9.45823,0.05864302,-0.19120067,0.017867794,92.006256,74.793755,104.381256,left
12325701776702,0.8422736,0.4534399,9.640084,0.08552107,-0.16187917,0.006872229,92.006256,74.793755,104.381256,left
12325696813941,0.8422736,0.4534399,9.640084,0.08552107,-0.16187917,0.006872229,92.006256,74.793755,104.381256,left
12325720968004,0.8422736,0.4534399,9.640084,0.08552107,-0.16187917,0.006872229,92.887505,76.05,103.78126,left
12325720849723,0.80877405,0.66400826,10.01815,0.08552107,-0.16187917,0.006872229,92.887505,76.05,103.78126,left
12325715886962,0.80877405,0.66400826,10.01815,0.08918626,-0.1386663,-0.0065667965,92.887505,76.05,103.78126,left
12325730967952,0.80877405,0.66400826,10.01815,0.08918626,-0.1386663,-0.0065667965,90.39375,75.506256,101.381256,left
12325740967900,0.80877405,0.66400826,10.01815,0.08918626,-0.1386663,-0.0065667965,91.93125,75.675,102.84376,left
12325739923733,0.8039884,0.587438,9.970294,0.010995566,-0.15699224,-0.018784093,91.93125,75.675,102.84376,left
12325734960973,0.8039884,0.587438,9.970294,0.010995566,-0.15699224,-0.018784093,91.93125,75.675,102.84376,left
12325750967848,0.8039884,0.587438,9.970294,0.010995566,-0.15699224,-0.018784093,91.012505,75.412506,102.9,left
12325760967796,0.8039884,0.587438,9.970294,0.010995566,-0.15699224,-0.018784093,91.40625,75.05625,102.1125,left
12325754033941,0.8039884,0.587438,9.970294,-0.05253437,-0.16676609,-0.02489274,93.61875,77.45625,102.7125,left
12325770967743,0.8039884,0.587438,9.970294,-0.05253437,-0.16676609,-0.02489274,93.61875,77.45625,102.7125,left
12325758996702,0.8470592,0.48215377,9.778868,-0.05253437,-0.16676609,-0.02489274,93.61875,77.45625,102.7125,left
12325780967691,0.8470592,0.48215377,9.778868,-0.05253437,-0.16676609,-0.02489274,91.425,75.037506,103.14375,left
12325778070712,0.971486,0.34337005,9.539586,-0.05253437,-0.15577053,-0.04444041,91.425,75.037506,103.14375,left
12325773107952,0.971486,0.34337005,9.539586,-0.05253437,-0.15577053,-0.04444041,91.3125,75.43125,103.2375,left
12325790967639,0.971486,0.34337005,9.539586,-0.05253437,-0.15577053,-0.04444041,91.3125,75.43125,103.2375,left
12325800967587,0.971486,0.34337005,9.539586,-0.05253437,-0.15577053,-0.04444041,91.03125,76.950005,103.631256,left
12325792180973,0.9762716,0.506082,9.573085,0.017104214,-0.1301142,-0.0481056,91.03125,76.950005,103.631256,left
12325797143733,0.9762716,0.506082,9.573085,0.017104214,-0.1301142,-0.0481056,91.03125,76.950005,103.631256,left
12325810967535,0.9762716,0.506082,9.573085,0.017104214,-0.1301142,-0.0481056,91.912506,75.375,103.59376,left
12325820967483,0.9762716,0.506082,9.573085,0.017104214,-0.1301142,-0.0481056,90.1875,76.14375,102.881256,left
12325816217691,1.0001999,0.587438,9.740582,0.08307761,-0.11178826,-0.05421425,90.1875,76.14375,102.881256,left
12325811254931,1.0001999,0.587438,9.740582,0.08307761,-0.11178826,-0.05421425,90.1875,76.14375,102.881256,left
12325830967431,1.0001999,0.587438,9.740582,0.08307761,-0.11178826,-0.05421425,91.9875,77.49375,103.537506,left
12325840967379,1.0001999,0.587438,9.740582,0.08307761,-0.11178826,-0.05421425,92.30625,74.850006,104.11875,left
12325835260712,0.89491564,0.9942178,10.176077,0.098960094,-0.10079269,-0.05054906,92.30625,74.850006,104.11875,left
12325830297952,0.89491564,0.9942178,10.176077,0.098960094,-0.10079269,-0.05054906,92.30625,74.850006,104.11875,left
12325850967327,0.89491564,0.9942178,10.176077,0.098960094,-0.10079269,-0.05054906,92.34375,75.28125,103.8,left
12325860967275,0.89491564,0.9942178,10.176077,0.098960094,-0.10079269,-0.05054906,90.731255,73.89375,105.4875,left
12325854333733,0.7322037,1.5876378,10.491929,0.098960094,-0.10079269,-0.05054906,90.731255,73.89375,105.4875,left
12325849370973,0.7322037,1.5876378,10.491929,-0.046425723,-0.13744457,-0.0151189035,90.731255,73.89375,105.4875,left
12325870967223,0.7322037,1.5876378,10.491929,-0.046425723,-0.13744457,-0.0151189035,89.11875,74.4375,104.100006,left
12325880967171,0.7322037,1.5876378,10.491929,-0.046425723,-0.13744457,-0.0151189035,90.01875,75.99375,102.450005,left
12325873407691,0.51206404,1.2095718,10.453644,-0.046425723,-0.13744457,-0.0151189035,90.01875,75.99375,102.450005,left
12325868444931,0.51206404,1.2095718,10.453644,-0.3555233,-0.22052218,0.0386372,90.01875,75.99375,102.450005,left
12325890967118,0.51206404,1.2095718,10.453644,-0.3555233,-0.22052218,0.0386372,90.9,77.08125,103.4625,left
12325900967066,0.51206404,1.2095718,10.453644,-0.3555233,-0.22052218,0.0386372,91.18125,78.24375,103.21876,left
12325892480712,0.4546363,0.21415763,10.276575,-0.5998692,-0.3243692,0.047189303,91.18125,78.24375,103.21876,left
12325887517952,0.4546363,0.21415763,10.276575,-0.5998692,-0.3243692,0.047189303,91.18125,78.24375,103.21876,left
12325910967014,0.4546363,0.21415763,10.276575,-0.5998692,-0.3243692,0.047189303,89.175,76.293755,103.18125,left
12325920966962,0.4546363,0.21415763,10.276575,-0.5998692,-0.3243692,0.047189303,89.137505,78.675,103.96876,left
12325911554723,0.44506502,-0.2548356,10.616356,-0.5229002,-0.40255988,0.04963276,89.137505,78.675,103.96876,left
12325906591962,0.44506502,-0.2548356,10.616356,-0.5229002,-0.40255988,0.04963276,89.137505,78.675,103.96876,left
12325930966910,0.44506502,-0.2548356,10.616356,-0.5229002,-0.40255988,0.04963276,91.162506,78.262505,102.506256,left
12325925664931,0.35413775,0.1902294,10.79821,-0.37262753,-0.4905244,0.06551525,89.381256,76.89375,102.56251,left
12325930627691,0.35413775,0.1902294,10.79821,-0.37262753,-0.4905244,0.06551525,89.381256,76.89375,102.56251,left
12325940966858,0.35413775,0.1902294,10.79821,-0.37262753,-0.4905244,0.06551525,89.381256,76.89375,102.56251,left
12325950966806,0.35413775,0.1902294,10.79821,-0.37262753,-0.4905244,0.06551525,89.49375,79.3125,103.21876,left
12325949701702,0.45942193,1.262214,10.960922,-0.37262753,-0.4905244,0.06551525,89.49375,79.3125,103.21876,left
12325944738941,0.45942193,1.262214,10.960922,-0.3970621,-0.6004801,0.11804962,89.49375,79.3125,103.21876,left
12325960966754,0.45942193,1.262214,10.960922,-0.3970621,-0.6004801,0.11804962,87.1125,79.443756,102.20625,left
12325970966702,0.45942193,1.262214,10.960922,-0.3970621,-0.6004801,0.11804962,88.5,78.46875,103.05,left
12325968774723,0.31585258,1.2000005,10.530214,-0.3970621,-0.6004801,0.11804962,88.5,78.46875,103.05,left
12325980966650,0.31585258,1.2000005,10.530214,-0.59620404,-0.7470876,0.2243401,89.4,78.28125,104.325005,left
12325963811962,0.31585258,1.2000005,10.530214,-0.59620404,-0.7470876,0.2243401,89.4,78.28125,104.325005,left
12325990966598,0.31585258,1.2000005,10.530214,-0.59620404,-0.7470876,0.2243401,89.2125,79.74375,101.11875,left
12325987817691,0.89013004,-0.020338992,9.372088,-0.59620404,-0.7470876,0.2243401,89.2125,79.74375,101.11875,left
12325982854931,0.89013004,-0.020338992,9.372088,-0.56443906,-0.8863648,0.27198756,89.2125,79.74375,101.11875,left
12326000966546,0.89013004,-0.020338992,9.372088,-0.56443906,-0.8863648,0.27198756,87.76875,78.356255,104.287506,left
12326010966493,0.89013004,-0.020338992,9.372088,-0.56443906,-0.8863648,0.27198756,87.787506,80.0625,103.2375,left
12326006891702,1.4404793,-0.049052864,9.132806,-0.56443906,-0.8863648,0.27198756,87.787506,80.0625,103.2375,left
12326001928941,1.4404793,-0.049052864,9.132806,-0.15515965,-0.8839213,0.38683012,87.787506,80.0625,103.2375,left
12326020966441,1.4404793,-0.049052864,9.132806,-0.15515965,-0.8839213,0.38683012,86.100006,79.575005,103.0875,left
12326030966389,1.4404793,-0.049052864,9.132806,-0.15515965,-0.8839213,0.38683012,86.100006,79.575005,103.0875,left
12326040966337,1.8233309,0.5204389,9.4534445,0.091629714,-0.82527834,0.46746427,86.4375,79.875,103.8375,left
12326025964723,1.8233309,0.5204389,9.4534445,0.091629714,-0.82527834,0.46746427,86.4375,79.875,103.8375,left
12326021001962,1.8233309,0.5204389,9.4534445,0.091629714,-0.82527834,0.46746427,86.4375,79.875,103.8375,left
12326050966285,1.8233309,0.5204389,9.4534445,0.091629714,-0.82527834,0.46746427,86.006256,78.84375,103.162506,left
12326045038733,1.942972,0.4869394,9.42473,0.091629714,-0.82527834,0.46746427,86.006256,78.84375,103.162506,left
12326040075973,1.942972,0.4869394,9.42473,-0.11484258,-0.786183,0.51999867,86.006256,78.84375,103.162506,left
12326060966233,1.942972,0.4869394,9.42473,-0.11484258,-0.786183,0.51999867,87.05625,81.525,103.59376,left
12326070966181,1.942972,0.4869394,9.42473,-0.11484258,-0.786183,0.51999867,85.575005,80.043755,104.15626,left
12326064111702,2.1343977,-0.58983076,9.041879,-0.11484258,-0.786183,0.51999867,85.575005,80.043755,104.15626,left
12326059148941,2.1343977,-0.58983076,9.041879,-0.24190246,-0.76419187,0.5358811,85.575005,80.043755,104.15626,left
12326080966129,2.1343977,-0.58983076,9.041879,-0.24190246,-0.76419187,0.5358811,84.918755,80.9625,103.68751,left
12326090966077,2.1343977,-0.58983076,9.041879,-0.24190246,-0.76419187,0.5358811,86.793755,80.34375,104.11875,left
12326083185712,2.225325,-1.125823,9.094521,-0.24190246,-0.76419187,0.5358811,86.793755,80.34375,104.11875,left
12326078222952,2.225325,-1.125823,9.094521,-0.028099779,-0.7128792,0.53099424,86.793755,80.34375,104.11875,left
12326100966025,2.225325,-1.125823,9.094521,-0.028099779,-0.7128792,0.53099424,86.512505,80.287506,104.81251,left
12326110965973,2.225325,-1.125823,9.094521,-0.028099779,-0.7128792,0.53099424,85.068756,79.387505,105.037506,left
12326102258733,2.416751,-0.26919255,9.61137,-0.028099779,-0.7128792,0.53099424,85.068756,79.387505,105.037506,left
12326097295973,2.416751,-0.26919255,9.61137,0.22113305,-0.6493493,0.5077813,85.068756,79.387505,105.037506,left
12326120965921,2.416751,-0.26919255,9.61137,0.22113305,-0.6493493,0.5077813,86.4,79.6125,103.12501,left
12326121332691,2.210968,-0.21655045,10.386645,0.22113305,-0.6493493,0.5077813,85.74375,80.193756,104.30625,left
12326130965868,2.210968,-0.21655045,10.386645,0.22113305,-0.6493493,0.5077813,85.74375,80.193756,104.30625,left
12326116369931,2.210968,-0.21655045,10.386645,0.08552107,-0.6676752,0.53221595,85.74375,80.193756,104.30625,left
12326140965816,2.210968,-0.21655045,10.386645,0.08552107,-0.6676752,0.53221595,84.506256,81.318756,104.043755,left
12326140405712,2.009971,-0.9056834,11.099706,-0.28344125,-0.77763087,0.49312058,84.506256,81.318756,104.043755,left
12326135442952,2.009971,-0.9056834,11.099706,-0.28344125,-0.77763087,0.49312058,85.725006,79.40625,108.450005,left
12326150965764,2.009971,-0.9056834,11.099706,-0.28344125,-0.77763087,0.49312058,85.725006,79.40625,108.450005,left
12326160965712,2.009971,-0.9056834,11.099706,-0.28344125,-0.77763087,0.49312058,82.33125,78.5625,107.26875,left
12326154485973,2.009971,-0.9056834,11.099706,-0.5705477,-0.962112,0.45524698,82.33125,78.5625,107.26875,left
12326170965660,2.009971,-0.9056834,11.099706,-0.5705477,-0.962112,0.45524698,83.100006,78.95625,106.74375,left
12326159448733,2.07697,-0.7429714,11.511271,-0.5705477,-0.962112,0.45524698,83.100006,78.95625,106.74375,left
12326180965608,2.07697,-0.7429714,11.511271,-0.5705477,-0.962112,0.45524698,84.65625,80.86875,105.99375,left
12326173559931,2.4502504,-0.19740787,11.35813,-0.8686497,-1.1661409,0.45280352,81.9375,81.76875,107.34376,left
12326178522691,2.4502504,-0.19740787,11.35813,-0.8686497,-1.1661409,0.45280352,81.9375,81.76875,107.34376,left
12326190965556,2.4502504,-0.19740787,11.35813,-0.8686497,-1.1661409,0.45280352,81.9375,81.76875,107.34376,left
12326200965504,2.4502504,-0.19740787,11.35813,-0.8686497,-1.1661409,0.45280352,82.875,81.99375,108.3,left
12326197595712,2.6943183,-0.3792624,11.037493,-1.3121376,-1.3665045,0.41737336,82.875,81.99375,108.3,left
12326192632952,2.6943183,-0.3792624,11.037493,-1.3121376,-1.3665045,0.41737336,82.875,81.99375,108.3,left
12326210965452,2.6943183,-0.3792624,11.037493,-1.3121376,-1.3665045,0.41737336,82.3125,83.625,108.65626,left
12326220965400,2.6943183,-0.3792624,11.037493,-1.3121376,-1.3665045,0.41737336,83.100006,82.59375,108.7125,left
12326216669723,2.8091738,-0.8147561,10.673783,-1.7434081,-1.5803071,0.39293876,83.100006,82.59375,108.7125,left
12326211706962,2.8091738,-0.8147561,10.673783,-1.7434081,-1.5803071,0.39293876,81.39375,84.787506,108.15,left
12326230965348,2.8091738,-0.8147561,10.673783,-1.7434081,-1.5803071,0.39293876,81.39375,84.787506,108.15,left
12326240965296,2.8091738,-0.8147561,10.673783,-1.7434081,-1.5803071,0.39293876,80.325005,84.637505,108.61875,left
12326230779931,2.8091738,-0.8147561,10.673783,-2.0305145,-1.8283182,0.40882125,80.325005,84.637505,108.61875,left
12326250965243,3.0005996,-1.4273187,10.281361,-2.0305145,-1.8283182,0.40882125,79.950005,87.825005,109.14375,left
12326235742691,3.0005996,-1.4273187,10.281361,-2.0305145,-1.8283182,0.40882125,79.950005,87.825005,109.14375,left
12326260965191,3.0005996,-1.4273187,10.281361,-2.0305145,-1.8283182,0.40882125,78.975006,85.21875,112.33125,left
12326249853941,3.4313076,-1.7862421,9.429516,-2.294408,-2.0885468,0.40882125,78.975006,85.21875,112.33125,left
12326254816702,3.4313076,-1.7862421,9.429516,-2.294408,-2.0885468,0.40882125,78.975006,85.21875,112.33125,left
12326270965139,3.4313076,-1.7862421,9.429516,-2.294408,-2.0885468,0.40882125,80.418755,87.525,112.425,left
12326280965087,3.4313076,-1.7862421,9.429516,-2.294408,-2.0885468,0.40882125,77.5875,89.006256,112.0875,left
12326273889723,4.0295134,-2.556731,8.333603,-2.294408,-2.0885468,0.40882125,77.5875,89.006256,112.0875,left
12326268926962,4.0295134,-2.556731,8.333603,-2.4678936,-2.3475533,0.37094763,77.5875,89.006256,112.0875,left
12326290965035,4.0295134,-2.556731,8.333603,-2.4678936,-2.3475533,0.37094763,77.887505,88.40625,115.2375,left
12326300964983,4.0295134,-2.556731,8.333603,-2.4678936,-2.3475533,0.37094763,77.381256,90.43125,116.5875,left
12326287999931,4.575077,-3.7052858,7.323832,-2.4422374,-2.5454736,0.2866483,77.381256,90.43125,116.5875,left
12326292962691,4.575077,-3.7052858,7.323832,-2.4422374,-2.5454736,0.2866483,77.381256,90.43125,116.5875,left
12326310964931,4.575077,-3.7052858,7.323832,-2.4422374,-2.5454736,0.2866483,75.1125,91.575005,115.631256,left
12326320964879,4.575077,-3.7052858,7.323832,-2.4422374,-2.5454736,0.2866483,74.625,92.475006,116.793755,left
12326312005712,5.1493545,-4.2556353,6.309275,-2.1844525,-2.6505423,0.17791437,74.625,92.475006,116.793755,left
12326307042952,5.1493545,-4.2556353,6.309275,-2.1844525,-2.6505423,0.17791437,74.625,92.475006,116.793755,left
12326330964827,5.1493545,-4.2556353,6.309275,-2.1844525,-2.6505423,0.17791437,73.631256,92.7375,118.106255,left
12326340964775,5.6709895,-4.241278,5.5387864,-2.1844525,-2.6505423,0.17791437,74.793755,94.9875,118.74375,left
12326331079723,5.6709895,-4.241278,5.5387864,-2.1844525,-2.6505423,0.17791437,74.793755,94.9875,118.74375,left
12326326116962,5.6709895,-4.241278,5.5387864,-1.7947208,-2.6847508,0.099723674,74.793755,94.9875,118.74375,left
12326350964723,5.6709895,-4.241278,5.5387864,-1.7947208,-2.6847508,0.099723674,74.15625,94.481255,119.006256,left
12326345189931,5.6709895,-4.241278,5.5387864,-1.5283837,-2.651764,0.015424335,71.137505,94.21875,119.11875,left
12326360964671,6.15434,-3.9924245,5.6440706,-1.5283837,-2.651764,0.015424335,71.137505,94.21875,119.11875,left
12326350152691,6.15434,-3.9924245,5.6440706,-1.5283837,-2.651764,0.015424335,71.137505,94.21875,119.11875,left
12326370964618,6.15434,-3.9924245,5.6440706,-1.5283837,-2.651764,0.015424335,71.006256,95.4375,121.03126,left
12326369226702,5.838487,-3.231507,4.8496532,-1.7531819,-2.5735734,-0.031001387,71.006256,95.4375,121.03126,left
12326364263941,5.838487,-3.231507,4.8496532,-1.7531819,-2.5735734,-0.031001387,71.006256,95.4375,121.03126,left
12326380964566,5.838487,-3.231507,4.8496532,-1.7531819,-2.5735734,-0.031001387,72.24375,95.7375,121.575005,left
12326390964514,5.838487,-3.231507,4.8496532,-1.7531819,-2.5735734,-0.031001387,70.14375,95.418755,122.81251,left
12326388299723,6.364908,-4.3130627,4.3375893,-1.7531819,-2.5735734,-0.031001387,70.14375,95.418755,122.81251,left
12326400964462,6.364908,-4.3130627,4.3375893,-2.371377,-2.688416,-0.14828743,69.80625,97.4625,125.043755,left
12326383336962,6.364908,-4.3130627,4.3375893,-2.371377,-2.688416,-0.14828743,69.80625,97.4625,125.043755,left
12326410964410,6.364908,-4.3130627,4.3375893,-2.371377,-2.688416,-0.14828743,69.318756,96.61875,127.537506,left
12326407373733,7.1545396,-6.3565335,3.6293137,-2.371377,-2.688416,-0.14828743,69.318756,96.61875,127.537506,left
12326402410973,7.1545396,-6.3565335,3.6293137,-2.6096144,-2.7446156,-0.35231626,68.887505,97.96876,128.23126,left
12326420964358,7.1545396,-6.3565335,3.6293137,-2.6096144,-2.7446156,-0.35231626,68.887505,97.96876,128.23126,left
12326430964306,7.1545396,-6.3565335,3.6293137,-2.6096144,-2.7446156,-0.35231626,68.475006,95.49375,129.01875,left
12326421483941,6.661618,-7.0600233,3.3565319,-2.4373505,-2.6542075,-0.5319105,68.475006,95.49375,129.01875,left
12326426446702,6.661618,-7.0600233,3.3565319,-2.4373505,-2.6542075,-0.5319105,68.475006,95.49375,129.01875,left
12326440964254,6.661618,-7.0600233,3.3565319,-2.4373505,-2.6542075,-0.5319105,67.725006,97.59376,132.05626,left
12326450964202,6.661618,-7.0600233,3.3565319,-2.4373505,-2.6542075,-0.5319105,67.78125,96.412506,134.3625,left
12326440557952,6.814759,-4.9734817,2.2510478,-2.4483461,-2.5503604,-0.7835868,67.78125,96.412506,134.3625,left
12326445520712,6.814759,-4.9734817,2.2510478,-2.4483461,-2.5503604,-0.7835868,67.78125,96.412506,134.3625,left
12326460964150,6.814759,-4.9734817,2.2510478,-2.4483461,-2.5503604,-0.7835868,66.9,97.856255,134.70001,left
12326470964098,6.814759,-4.9734817,2.2510478,-2.4483461,-2.5503604,-0.7835868,66.01875,98.006256,135.16876,left
12326464563733,8.126026,-2.652444,-0.55334026,-2.8283038,-2.330449,-0.9472986,66.01875,98.006256,135.16876,left
12326459600973,8.126026,-2.652444,-0.55334026,-2.8283038,-2.330449,-0.9472986,66.01875,98.006256,135.16876,left
12326480964046,8.126026,-2.652444,-0.55334026,-2.8283038,-2.330449,-0.9472986,65.83125,97.387505,136.66876,left
12326490963993,8.126026,-2.652444,-0.55334026,-2.8283038,-2.330449,-0.9472986,65.83125,97.387505,136.66876,left
12326478673941,9.781859,-3.3607194,-2.649453,-3.4147341,-2.0005822,-1.0474803,65.83125,97.387505,136.66876,left
12326483636702,9.781859,-3.3607194,-2.649453,-3.4147341,-2.0005822,-1.0474803,65.83125,97.387505,136.66876,left
12326500963941,9.781859,-3.3607194,-2.649453,-3.4147341,-2.0005822,-1.0474803,65.9625,96.93751,138.31876,left
12326502710712,10.844273,-4.2317066,-3.5443685,-3.8631089,-1.4898992,-1.194088,65.49375,94.8375,141.09375,left
12326510963889,10.844273,-4.2317066,-3.5443685,-3.8631089,-1.4898992,-1.194088,65.49375,94.8375,141.09375,left
12326497747952,10.844273,-4.2317066,-3.5443685,-3.8631089,-1.4898992,-1.194088,65.49375,94.8375,141.09375,left
12326520963837,10.844273,-4.2317066,-3.5443685,-3.8631089,-1.4898992,-1.194088,65.68125,96.39375,141.675,left
12326530963785,10.844273,-4.2317066,-3.5443685,-3.8631089,-1.4898992,-1.194088,65.512505,95.90625,143.88751,left
12326521783733,10.805987,-4.7102714,-2.6973093,-3.6798494,-1.102611,-1.261283,65.512505,95.90625,143.88751,left
12326516820973,10.805987,-4.7102714,-2.6973093,-3.6798494,-1.102611,-1.261283,65.512505,95.90625,143.88751,left
12326540963733,10.805987,-4.7102714,-2.6973093,-3.6798494,-1.102611,-1.261283,64.818756,94.950005,144.33751,left
12326550963681,10.805987,-4.7102714,-2.6973093,-3.6798494,-1.102611,-1.261283,65.2125,94.275,145.9125,left
12326540857691,9.52822,-4.9495535,-2.2809582,-2.642601,-0.67622733,-1.1586578,65.2125,94.275,145.9125,left
12326535894931,9.52822,-4.9495535,-2.2809582,-2.642601,-0.67622733,-1.1586578,64.8,94.162506,147.75,left
12326560963629,9.52822,-4.9495535,-2.2809582,-2.642601,-0.67622733,-1.1586578,64.8,94.162506,147.75,left
12326559930712,8.609376,-3.9828532,-1.8550358,-2.642601,-0.67622733,-1.1586578,64.8,94.162506,147.75,left
12326554967952,8.609376,-3.9828532,-1.8550358,-1.237612,-0.36102107,-0.95585066,64.8,94.162506,147.75,left
12326570963577,8.609376,-3.9828532,-1.8550358,-1.237612,-0.36102107,-0.95585066,63.506252,91.70625,149.60626,left
12326580963525,8.609376,-3.9828532,-1.8550358,-1.237612,-0.36102107,-0.95585066,63.506252,91.70625,149.60626,left
12326579004723,9.690931,-2.7242286,-3.0418758,-0.4996874,-0.082466744,-0.8874338,65.15625,90.525,148.59375,left
12326574041962,9.690931,-2.7242286,-3.0418758,-0.4996874,-0.082466744,-0.8874338,65.15625,90.525,148.59375,left
12326590963473,9.690931,-2.7242286,-3.0418758,-0.4996874,-0.082466744,-0.8874338,65.15625,90.525,148.59375,left
12326600963421,9.690931,-2.7242286,-3.0418758,-0.4996874,-0.082466744,-0.8874338,65.30625,89.26875,148.74376,left
12326598077691,10.025927,-3.6143587,-6.1190457,-0.4996874,-0.082466744,-0.8874338,65.30625,89.26875,148.74376,left
12326593114931,10.025927,-3.6143587,-6.1190457,-0.3420843,0.54550225,-0.6858484,65.30625,89.26875,148.74376,left
12326610963368,10.025927,-3.6143587,-6.1190457,-0.3420843,0.54550225,-0.6858484,61.631252,89.775,148.55626,left
12326620963316,10.025927,-3.6143587,-6.1190457,-0.3420843,0.54550225,-0.6858484,64.70625,89.175,148.96875,left
12326617151702,8.451449,-3.542574,-4.9082775,-0.10506874,1.2162318,-0.29733843,64.70625,89.175,148.96875,left
12326612188941,8.451449,-3.542574,-4.9082775,-0.10506874,1.2162318,-0.29733843,64.93125,89.775,148.78125,left
12326630963264,8.451449,-3.542574,-4.9082775,-0.10506874,1.2162318,-0.29733843,64.93125,89.775,148.78125,left
12326640963212,8.451449,-3.542574,-4.9082775,-0.10506874,1.2162318,-0.29733843,65.83125,90.05625,147.69376,left
12326631231962,8.451449,-3.542574,-4.9082775,-0.07574723,1.7745622,-0.05177079,65.83125,90.05625,147.69376,left
12326636194723,10.403993,-4.3848476,-3.5156546,-0.07574723,1.7745622,-0.05177079,65.83125,90.05625,147.69376,left
12326650963160,10.403993,-4.3848476,-3.5156546,-0.07574723,1.7745622,-0.05177079,63.131252,88.74375,146.79376,left
12326660963108,10.403993,-4.3848476,-3.5156546,-0.07574723,1.7745622,-0.05177079,63.750004,89.775,142.55626,left
12326655267691,9.619147,-2.973082,-2.864807,-0.073303774,2.7898195,-0.28634286,63.750004,89.775,142.55626,left
12326650304931,9.619147,-2.973082,-2.864807,-0.073303774,2.7898195,-0.28634286,63.750004,89.775,142.55626,left
12326670963056,9.619147,-2.973082,-2.864807,-0.073303774,2.7898195,-0.28634286,62.5875,90.037506,142.5375,left
12326680963004,9.619147,-2.973082,-2.864807,-0.073303774,2.7898195,-0.28634286,63.675003,89.043755,142.6125,left
12326674341702,6.34098,1.0372887,0.72442704,-0.21746786,3.5753915,-0.27412558,63.675003,89.043755,142.6125,left
12326669378941,6.34098,1.0372887,0.72442704,-0.21746786,3.5753915,-0.27412558,63.675003,89.043755,142.6125,left
12326690962952,6.34098,1.0372887,0.72442704,-0.21746786,3.5753915,-0.27412558,63.6375,90.20625,141.33751,left
12326700962900,6.34098,1.0372887,0.72442704,-0.21746786,3.5753915,-0.27412558,62.04375,91.200005,138.15001,left
12326688451962,1.8329022,-6.265606,14.42573,-1.1630865,3.8368416,-0.23625195,62.04375,91.200005,138.15001,left
12326693414723,1.8329022,-6.265606,14.42573,-1.1630865,3.8368416,-0.23625195,62.04375,91.200005,138.15001,left
12326710962848,1.8329022,-6.265606,14.42573,-1.1630865,3.8368416,-0.23625195,64.575005,91.59375,135.4875,left
12326720962796,-10.566705,-20.885752,9.137591,-1.1630865,3.8368416,-0.23625195,61.443752,92.55,137.64375,left
12326712488733,-10.566705,-20.885752,9.137591,-1.1630865,3.8368416,-0.23625195,61.443752,92.55,137.64375,left
12326707525973,-10.566705,-20.885752,9.137591,-0.48624837,0.82161313,-0.6345358,61.443752,92.55,137.64375,left
12326730962743,-10.566705,-20.885752,9.137591,-0.48624837,0.82161313,-0.6345358,63.131252,90.525,136.59375,left
12326740962691,10.628919,9.704092,15.201004,4.256506,0.3035998,0.06307179,62.475002,90.506256,133.76251,left
12326726598941,10.628919,9.704092,15.201004,4.256506,0.3035998,0.06307179,62.475002,90.506256,133.76251,left
12326731561702,10.628919,9.704092,15.201004,4.256506,0.3035998,0.06307179,62.475002,90.506256,133.76251,left
12326750962639,10.628919,9.704092,15.201004,4.256506,0.3035998,0.06307179,63.3375,89.86875,135.50626,left
12326760962587,10.628919,9.704092,15.201004,4.256506,0.3035998,0.06307179,63.187504,91.293755,134.49376,left
12326750635712,10.920842,-4.0163527,21.915264,4.256506,0.3035998,0.06307179,63.187504,91.293755,134.49376,left
12326745672952,10.920842,-4.0163527,21.915264,0.61208653,-0.9401209,-0.30344707,63.187504,91.293755,134.49376,left
12326770962535,10.920842,-4.0163527,21.915264,0.61208653,-0.9401209,-0.30344707,61.3875,89.756256,136.03125,left
12326764745973,10.920842,-4.0163527,21.915264,-0.8173371,-1.241888,-0.3046688,61.3875,89.756256,136.03125,left
12326780962483,10.920842,-4.0163527,21.915264,-0.8173371,-1.241888,-0.3046688,62.325,88.425,137.2875,left
12326769708733,4.847859,-12.257234,-0.35712877,-0.8173371,-1.241888,-0.3046688,62.325,88.425,137.2875,left
12326790962431,4.847859,-12.257234,-0.35712877,-0.8173371,-1.241888,-0.3046688,61.068752,90.99375,135.58125,left
12326788751702,14.639289,5.5980086,2.978466,-0.8173371,-1.241888,-0.3046688,61.068752,90.99375,135.58125,left
12326783788941,14.639289,5.5980086,2.978466,1.1252129,-1.3322961,-0.5111411,61.068752,90.99375,135.58125,left
12326800962379,14.639289,5.5980086,2.978466,1.1252129,-1.3322961,-0.5111411,59.662502,90.05625,137.25,left
12326810962327,14.639289,5.5980086,2.978466,1.1252129,-1.3322961,-0.5111411,59.662502,90.05625,137.25,left
12326807825712,6.8482585,-2.3557339,4.6295137,-0.31398448,-1.0451896,-0.116522454,59.662502,90.05625,137.25,left
12326802862952,6.8482585,-2.3557339,4.6295137,-0.31398448,-1.0451896,-0.116522454,59.662502,90.05625,137.25,left
12326820962275,6.8482585,-2.3557339,4.6295137,-0.31398448,-1.0451896,-0.116522454,62.268753,92.100006,136.9125,left
12326830962223,6.8482585,-2.3557339,4.6295137,-0.31398448,-1.0451896,-0.116522454,61.55625,90.693756,139.01251,left
12326826898733,8.135597,-7.629515,0.9302098,-0.32498005,-1.3310744,-0.15073088,61.55625,90.693756,139.01251,left
12326821935973,8.135597,-7.629515,0.9302098,-0.32498005,-1.3310744,-0.15073088,61.55625,90.693756,139.01251,left
12326840962171,8.135597,-7.629515,0.9302098,-0.32498005,-1.3310744,-0.15073088,60.768753,90.61875,137.625,left
12326850962118,8.135597,-7.629515,0.9302098,-0.32498005,-1.3310744,-0.15073088,60.45,90.131256,138.9375,left
12326845972691,10.370493,-4.0594234,0.37507495,1.7324125,-1.4300344,-0.22892158,60.45,90.131256,138.9375,left
12326841009931,10.370493,-4.0594234,0.37507495,1.7324125,-1.4300344,-0.22892158,60.45,90.131256,138.9375,left
12326860962066,10.370493,-4.0594234,0.37507495,1.7324125,-1.4300344,-0.22892158,60.9,88.912506,138.82501,left
12326870962014,10.370493,-4.0594234,0.37507495,1.7324125,-1.4300344,-0.22892158,60.6375,88.8375,140.83125,left
12326860082952,8.968299,-2.5471597,1.2460624,2.095266,-1.3799435,-0.12751803,60.6375,88.8375,140.83125,left
12326865045712,8.968299,-2.5471597,1.2460624,2.095266,-1.3799435,-0.12751803,60.6375,88.8375,140.83125,left
12326880961962,8.968299,-2.5471597,1.2460624,2.095266,-1.3799435,-0.12751803,60.54375,87.825005,141.50626,left
12326890961910,8.968299,-2.5471597,1.2460624,2.095266,-1.3799435,-0.12751803,63.35625,87.131256,144.35626,left
12326884119723,8.068598,-4.078566,0.3080759,1.242499,-1.3762784,-0.10430516,63.35625,87.131256,144.35626,left
12326879156962,8.068598,-4.078566,0.3080759,1.242499,-1.3762784,-0.10430516,63.35625,87.131256,144.35626,left
12326900961858,8.068598,-4.078566,0.3080759,1.242499,-1.3762784,-0.10430516,62.04375,87.84375,142.5375,left
12326910961806,8.068598,-4.078566,0.3080759,1.242499,-1.3762784,-0.10430516,60.45,88.36875,141.28125,left
12326903192691,8.724232,-3.8057845,-1.783251,0.62552553,-1.2284491,-0.20693044,60.45,88.36875,141.28125,left
12326898229931,8.724232,-3.8057845,-1.783251,0.62552553,-1.2284491,-0.20693044,60.45,88.36875,141.28125,left
12326920961754,8.724232,-3.8057845,-1.783251,0.62552553,-1.2284491,-0.20693044,59.98125,89.418755,142.29376,left
12326930961702,8.724232,-3.8057845,-1.783251,0.62552553,-1.2284491,-0.20693044,61.031254,87.675,144.46875,left
12326922265712,9.379865,-2.475375,-3.0275187,0.14905101,-0.9596686,-0.25702137,61.031254,87.675,144.46875,left
12326917302952,9.379865,-2.475375,-3.0275187,0.14905101,-0.9596686,-0.25702137,61.031254,87.675,144.46875,left
12326940961650,9.379865,-2.475375,-3.0275187,0.14905101,-0.9596686,-0.25702137,61.537502,87.20625,143.13751,left
12326950961598,9.379865,-2.475375,-3.0275187,0.14905101,-0.9596686,-0.25702137,62.437504,86.850006,145.01251,left
12326936376962,9.379865,-2.475375,-3.0275187,-0.036651887,-0.6921098,-0.15317434,62.437504,86.850006,145.01251,left
12326941339723,8.953942,-2.3078775,-3.1375887,-0.036651887,-0.6921098,-0.15317434,62.437504,86.850006,145.01251,left
12326960961546,8.953942,-2.3078775,-3.1375887,-0.036651887,-0.6921098,-0.15317434,60.881252,87.80625,144.3,left
12326970961493,8.705089,-2.7529426,-2.888735,-0.036651887,-0.6921098,-0.15317434,60.24375,87.450005,143.98126,left
12326960382691,8.705089,-2.7529426,-2.888735,-0.036651887,-0.6921098,-0.15317434,60.24375,87.450005,143.98126,left
12326955419931,8.705089,-2.7529426,-2.888735,0.16859868,-0.46731156,-0.011453714,60.24375,87.450005,143.98126,left
12326980961441,8.705089,-2.7529426,-2.888735,0.16859868,-0.46731156,-0.011453714,59.11875,86.55,145.5375,left
12326979455712,8.877372,-2.3222344,-3.03709,0.16859868,-0.46731156,-0.011453714,59.11875,86.55,145.5375,left
12326974492952,8.877372,-2.3222344,-3.03709,0.44837475,-0.20708317,0.080176,61.612503,87.9375,142.63126,left
12326990961389,8.877372,-2.3222344,-3.03709,0.44837475,-0.20708317,0.080176,61.612503,87.9375,142.63126,left
12327000961337,8.877372,-2.3222344,-3.03709,0.44837475,-0.20708317,0.080176,60.468754,87.09375,142.29376,left
12326998529723,9.982856,-1.7910278,-4.8508496,0.44837475,-0.20708317,0.080176,60.468754,87.09375,142.29376,left
12326993566962,9.982856,-1.7910278,-4.8508496,0.20280711,0.07024945,0.12171481,60.468754,87.09375,142.29376,left
12327010961285,9.982856,-1.7910278,-4.8508496,0.20280711,0.07024945,0.12171481,60.35625,88.443756,144.1875,left
12327020961233,9.982856,-1.7910278,-4.8508496,0.20280711,0.07024945,0.12171481,60.35625,88.443756,144.1875,left
12327017602691,11.107483,-2.4705894,-7.205387,0.20280711,0.07024945,0.12171481,60.35625,88.443756,144.1875,left
12327012639931,11.107483,-2.4705894,-7.205387,-0.46792242,0.46364638,0.18646647,60.35625,88.443756,144.1875,left
12327030961181,11.107483,-2.4705894,-7.205387,-0.46792242,0.46364638,0.18646647,62.5125,87.58125,144.35626,left
12327040961129,11.107483,-2.4705894,-7.205387,-0.46792242,0.46364638,0.18646647,62.156254,88.856255,142.46251,left
12327036676702,10.12164,-3.8871403,-7.827521,-0.46792242,0.46364638,0.18646647,62.156254,88.856255,142.46251,left
12327031713941,10.12164,-3.8871403,-7.827521,-0.9602794,1.1282673,0.25610507,62.156254,88.856255,142.46251,left
12327050961077,10.12164,-3.8871403,-7.827521,-0.9602794,1.1282673,0.25610507,61.875004,88.8,142.85626,left
12327060961025,10.12164,-3.8871403,-7.827521,-0.9602794,1.1282673,0.25610507,59.98125,89.7375,140.6625,left
12327050786962,8.1738825,-5.5334024,-6.238687,-0.8686497,2.0079126,0.29031348,61.687504,90.5625,138.88126,left
12327055749723,8.1738825,-5.5334024,-6.238687,-0.8686497,2.0079126,0.29031348,61.687504,90.5625,138.88126,left
12327080960921,8.1738825,-5.5334024,-6.238687,-0.8686497,2.0079126,0.29031348,61.687504,90.5625,138.88126,left
12327070960973,8.1738825,-5.5334024,-6.238687,-0.8686497,2.0079126,0.29031348,61.687504,90.5625,138.88126,left
12327074823733,8.384451,-5.231907,-5.7266226,-0.6218603,3.0060656,0.099723674,61.687504,90.5625,138.88126,left
12327069860973,8.384451,-5.231907,-5.7266226,-0.6218603,3.0060656,0.099723674,61.687504,90.5625,138.88126,left
12327090960868,8.384451,-5.231907,-5.7266226,-0.6218603,3.0060656,0.099723674,62.268753,90.675,137.34375,left
12327088933941,8.068598,-4.1168513,-2.8791637,-0.6499601,3.9761188,-0.17883067,64.3125,87.7125,136.57501,left
12327093896702,-1.2969099,-8.538788,19.57987,-0.6499601,3.9761188,-0.17883067,61.237503,86.887505,136.875,left
12327107976962,-1.2969099,-8.538788,19.57987,-0.82833266,4.359742,-0.42928523,61.237503,86.887505,136.875,left
12327110960764,-1.2969099,-8.538788,19.57987,-0.82833266,4.359742,-0.42928523,61.237503,86.887505,136.875,left
12327120960712,-1.2969099,-8.538788,19.57987,-0.82833266,4.359742,-0.42928523,61.237503,86.887505,136.875,left
12327112939723,-1.2969099,-8.538788,19.57987,-0.82833266,4.359742,-0.42928523,61.237503,86.887505,136.875,left
12327100960816,-1.2969099,-8.538788,19.57987,-0.82833266,4.359742,-0.42928523,61.237503,86.887505,136.875,left
12327130960660,-1.2969099,-8.538788,19.57987,-0.82833266,4.359742,-0.42928523,63.35625,87.4875,134.7375,left
12327140960608,-1.2969099,-8.538788,19.57987,-0.82833266,4.359742,-0.42928523,63.318752,88.3125,135.80626,left
12327132013733,-7.757531,-11.879168,4.8640103,-1.9730933,1.5961896,-0.64553136,63.318752,88.3125,135.80626,left
12327127050973,-7.757531,-11.879168,4.8640103,-1.9730933,1.5961896,-0.64553136,63.318752,88.3125,135.80626,left
12327150960556,-7.757531,-11.879168,4.8640103,-1.9730933,1.5961896,-0.64553136,62.250004,88.200005,134.68126,left
12327160960504,15.227923,6.3972116,19.235304,-1.9730933,1.5961896,-0.64553136,61.4625,87.01875,132.24376,left
12327151086702,15.227923,6.3972116,19.235304,-1.9730933,1.5961896,-0.64553136,61.4625,87.01875,132.24376,left
12327146123941,15.227923,6.3972116,19.235304,2.1893394,0.23396121,-0.10063997,61.4625,87.01875,132.24376,left
12327170960452,15.227923,6.3972116,19.235304,2.1893394,0.23396121,-0.10063997,60.600002,88.6125,131.98126,left
12327170160712,8.949157,-3.2219357,15.90928,2.1893394,0.23396121,-0.10063997,60.600002,88.6125,131.98126,left
12327165197952,8.949157,-3.2219357,15.90928,1.4391974,-0.72509646,-0.46227193,60.600002,88.6125,131.98126,left
12327180960400,8.949157,-3.2219357,15.90928,1.4391974,-0.72509646,-0.46227193,62.456253,89.11875,132.43126,left
12327190960348,8.949157,-3.2219357,15.90928,1.4391974,-0.72509646,-0.46227193,60.91875,89.26875,129.91876,left
12327184270973,8.949157,-3.2219357,15.90928,0.9639446,-1.0561852,-0.084757484,60.487503,89.025,131.64375,left
12327200960296,6.326623,-7.749156,3.667599,0.9639446,-1.0561852,-0.084757484,60.487503,89.025,131.64375,left
12327189233733,6.326623,-7.749156,3.667599,0.9639446,-1.0561852,-0.084757484,60.487503,89.025,131.64375,left
12327210960243,6.326623,-7.749156,3.667599,0.9639446,-1.0561852,-0.084757484,62.193752,88.256256,131.32501,left
12327208307691,14.084154,4.6169515,7.764111,0.9639446,-1.0561852,-0.084757484,62.193752,88.256256,131.32501,left
12327203344931,14.084154,4.6169515,7.764111,1.888794,-1.3322961,-0.43539387,60.675003,88.05,131.75626,left
12327220960191,14.084154,4.6169515,7.764111,1.888794,-1.3322961,-0.43539387,60.675003,88.05,131.75626,left
12327230960139,14.084154,4.6169515,7.764111,1.888794,-1.3322961,-0.43539387,59.643753,86.793755,131.32501,left
12327222417952,5.852844,-2.3557339,7.0462646,-0.73792464,-1.0965023,-0.07987057,62.325,87.80625,133.57501,left
12327240960087,5.852844,-2.3557339,7.0462646,-0.73792464,-1.0965023,-0.07987057,62.325,87.80625,133.57501,left
12327227380712,5.852844,-2.3557339,7.0462646,-0.73792464,-1.0965023,-0.07987057,59.643753,86.793755,131.32501,left
12327250960035,5.852844,-2.3557339,7.0462646,-0.73792464,-1.0965023,-0.07987057,61.237503,88.8,133.5,left
12327246454723,8.695518,-3.5856447,2.6004,-0.73792464,-1.0965023,-0.07987057,61.237503,88.8,133.5,left
12327241491962,8.695518,-3.5856447,2.6004,-0.8955278,-1.432478,-0.18371758,61.237503,88.8,133.5,left
12327260959983,8.695518,-3.5856447,2.6004,-0.8955278,-1.432478,-0.18371758,60.2625,88.106255,133.29376,left
12327270959931,8.695518,-3.5856447,2.6004,-0.8955278,-1.432478,-0.18371758,60.937504,88.6125,133.9125,left
12327265527691,9.432507,-1.288535,2.6004,0.5009091,-1.4776819,-0.018784093,60.937504,88.6125,133.9125,left
12327260564931,9.432507,-1.288535,2.6004,0.5009091,-1.4776819,-0.018784093,60.937504,88.6125,133.9125,left
12327280959879,9.432507,-1.288535,2.6004,0.5009091,-1.4776819,-0.018784093,61.2,88.05,135.3,left
12327290959827,9.432507,-1.288535,2.6004,0.5009091,-1.4776819,-0.018784093,61.143753,87.3,136.66876,left
12327284570712,8.111669,-3.1310084,1.5188441,0.5009091,-1.4776819,-0.018784093,61.143753,87.3,136.66876,left
12327279607952,8.111669,-3.1310084,1.5188441,0.6878337,-1.3469568,0.08261946,61.143753,87.3,136.66876,left
12327300959775,8.111669,-3.1310084,1.5188441,0.6878337,-1.3469568,0.08261946,59.79375,87.43125,135.9375,left
12327310959723,9.01137,-3.3080773,0.9589237,0.6878337,-1.3469568,0.08261946,57.600002,89.418755,134.90625,left
12327303644723,9.01137,-3.3080773,0.9589237,0.6878337,-1.3469568,0.08261946,57.600002,89.418755,134.90625,left
12327298681962,9.01137,-3.3080773,0.9589237,0.7330377,-1.2834269,0.054519683,58.781254,87.543755,137.25,left
12327320959671,9.01137,-3.3080773,0.9589237,0.7330377,-1.2834269,0.054519683,58.781254,87.543755,137.25,left
12327322717691,9.025727,-2.3318057,0.590429,0.7330377,-1.2834269,0.054519683,59.831253,88.78125,138.4125,left
12327330959618,9.025727,-2.3318057,0.590429,0.7330377,-1.2834269,0.054519683,59.831253,88.78125,138.4125,left
12327317754931,9.025727,-2.3318057,0.590429,0.52656543,-1.1148282,0.023976443,59.831253,88.78125,138.4125,left
12327340959566,9.025727,-2.3318057,0.590429,0.52656543,-1.1148282,0.023976443,59.568752,87.600006,139.2375,left
12327350959514,9.025727,-2.3318057,0.590429,0.52656543,-1.1148282,0.023976443,59.100002,87.731255,136.9875,left
12327336828941,8.422736,-2.882155,-0.026919255,0.0024434591,-0.94256437,0.045967575,59.100002,87.731255,136.9875,left
12327341791702,8.422736,-2.882155,-0.026919255,0.0024434591,-0.94256437,0.045967575,59.100002,87.731255,136.9875,left
12327360959462,8.422736,-2.882155,-0.026919255,0.0024434591,-0.94256437,0.045967575,60.35625,87.99375,138.99376,left
12327360864723,8.389236,-3.0783663,-1.0175478,0.0024434591,-0.94256437,0.045967575,60.35625,87.99375,138.99376,left
12327355901962,8.389236,-3.0783663,-1.0175478,-0.17470732,-0.7788526,0.023976443,60.35625,87.99375,138.99376,left
12327370959410,8.389236,-3.0783663,-1.0175478,-0.17470732,-0.7788526,0.023976443,57.862503,88.05,140.4375,left
12327380959358,8.389236,-3.0783663,-1.0175478,-0.17470732,-0.7788526,0.023976443,59.662502,87.037506,139.59375,left
12327374975973,8.800801,-2.5423741,-1.5248263,0.08307761,-0.59559315,0.022754714,59.662502,87.037506,139.59375,left
12327379938733,8.800801,-2.5423741,-1.5248263,0.08307761,-0.59559315,0.022754714,59.662502,87.037506,139.59375,left
12327390959306,8.800801,-2.5423741,-1.5248263,0.08307761,-0.59559315,0.022754714,59.193752,84.918755,143.08125,left
12327400959254,8.800801,-2.5423741,-1.5248263,0.08307761,-0.59559315,0.022754714,61.143753,86.625,141.1125,left
12327394048941,8.800801,-2.5423741,-1.5248263,0.34452772,-0.42943794,0.06307179,60.487503,85.96875,141.52501,left
12327410959202,9.107083,-2.1978076,-1.6683956,0.34452772,-0.42943794,0.06307179,60.487503,85.96875,141.52501,left
12327399011702,9.107083,-2.1978076,-1.6683956,0.34452772,-0.42943794,0.06307179,60.487503,85.96875,141.52501,left
12327420959150,9.107083,-2.1978076,-1.6683956,0.34452772,-0.42943794,0.06307179,59.531254,88.425,140.02501,left
12327418085712,9.212367,-2.2121646,-1.500898,0.4214967,-0.2791652,0.12171481,59.531254,88.425,140.02501,left
12327413122952,9.212367,-2.2121646,-1.500898,0.4214967,-0.2791652,0.12171481,59.531254,88.425,140.02501,left
12327430959098,9.212367,-2.2121646,-1.500898,0.4214967,-0.2791652,0.12171481,58.687504,85.70625,143.38126,left
12327440959046,9.212367,-2.2121646,-1.500898,0.4214967,-0.2791652,0.12171481,61.48125,88.537506,140.38126,left
12327437128733,9.322437,-2.7003005,-2.3383858,0.13316852,-0.108123064,0.14126249,61.48125,88.537506,140.38126,left
12327432165973,9.322437,-2.7003005,-2.3383858,0.13316852,-0.108123064,0.14126249,61.48125,88.537506,140.38126,left
12327450958993,9.322437,-2.7003005,-2.3383858,0.13316852,-0.108123064,0.14126249,59.8875,87.61875,140.2875,left
12327460958941,9.322437,-2.7003005,-2.3383858,0.13316852,-0.108123064,0.14126249,58.36875,87.600006,138.35626,left
12327451238941,9.939785,-2.772085,-4.0325046,-0.4667007,0.13988803,0.12415826,58.36875,87.600006,138.35626,left
12327456201702,9.939785,-2.772085,-4.0325046,-0.4667007,0.13988803,0.12415826,58.36875,87.600006,138.35626,left
12327470958889,9.939785,-2.772085,-4.0325046,-0.4667007,0.13988803,0.12415826,60.787502,86.006256,141.5625,left
12327480958837,9.939785,-2.772085,-4.0325046,-0.4667007,0.13988803,0.12415826,60.750004,88.40625,141.75,left
12327475275712,10.576276,-2.882155,-6.382256,-0.4667007,0.13988803,0.12415826,60.750004,88.40625,141.75,left
12327470312952,10.576276,-2.882155,-6.382256,-1.0238093,0.5076286,0.15225805,60.750004,88.40625,141.75,left
12327490958785,10.576276,-2.882155,-6.382256,-1.0238093,0.5076286,0.15225805,59.5875,87.600006,139.66876,left
12327500958733,10.576276,-2.882155,-6.382256,-1.0238093,0.5076286,0.15225805,61.875004,87.7125,141.375,left
12327489385973,10.657632,-4.1168513,-8.023732,-1.2559379,1.1270455,0.1547015,61.875004,87.7125,141.375,left
12327494348733,10.657632,-4.1168513,-8.023732,-1.2559379,1.1270455,0.1547015,61.875004,87.7125,141.375,left
12327510958681,10.657632,-4.1168513,-8.023732,-1.2559379,1.1270455,0.1547015,61.55625,86.418755,140.30626,left
12327520958629,10.657632,-4.1168513,-8.023732,-1.2559379,1.1270455,0.1547015,59.287502,87.543755,139.93126,left
12327513421702,9.040084,-5.1026945,-7.262815,-1.2559379,1.1270455,0.1547015,59.287502,87.543755,139.93126,left
12327508458941,9.040084,-5.1026945,-7.262815,-1.2217295,2.0958772,0.08628465,59.287502,87.543755,139.93126,left
12327530958577,9.040084,-5.1026945,-7.262815,-1.2217295,2.0958772,0.08628465,60.581253,86.981255,140.85,left
12327540958525,9.040084,-5.1026945,-7.262815,-1.2217295,2.0958772,0.08628465,62.11875,86.4,138.46875,left
12327532495712,7.728817,-5.1266227,-5.9754763,-1.0274745,3.1270168,-0.057879437,62.11875,86.4,138.46875,left
12327527532952,7.728817,-5.1266227,-5.9754763,-1.0274745,3.1270168,-0.057879437,62.11875,86.4,138.46875,left
12327550958473,7.728817,-5.1266227,-5.9754763,-1.0274745,3.1270168,-0.057879437,62.062504,88.9875,136.03125,left
12327560958421,7.728817,-5.1266227,-5.9754763,-1.0274745,3.1270168,-0.057879437,61.706253,87.09375,136.33125,left
12327551568733,6.63769,-3.446861,-2.7643085,-1.0274745,3.1270168,-0.057879437,61.706253,87.09375,136.33125,left
12327546605973,6.63769,-3.446861,-2.7643085,-0.85643244,4.060418,-0.24969098,61.18125,88.05,134.56876,left
12327570958368,6.63769,-3.446861,-2.7643085,-0.85643244,4.060418,-0.24969098,61.18125,88.05,134.56876,left
12327570642691,-9.135797,-11.477174,41.58905,-0.85643244,4.060418,-0.24969098,61.18125,88.05,134.56876,left
12327565679931,-9.135797,-11.477174,41.58905,-1.8912374,3.4043493,-0.5074759,61.18125,88.05,134.56876,left
12327580958316,-9.135797,-11.477174,41.58905,-1.8912374,3.4043493,-0.5074759,62.250004,87.09375,133.20001,left
12327590958264,-9.135797,-11.477174,41.58905,-1.8912374,3.4043493,-0.5074759,61.031254,86.756256,134.68126,left
12327589715712,0.89013004,-6.3661046,-25.079773,-1.5491531,1.3469568,-0.38041604,61.031254,86.756256,134.68126,left
12327584752952,0.89013004,-6.3661046,-25.079773,-1.5491531,1.3469568,-0.38041604,62.41875,87.24375,133.78125,left
12327600958212,0.89013004,-6.3661046,-25.079773,-1.5491531,1.3469568,-0.38041604,62.41875,87.24375,133.78125,left
12327610958160,0.89013004,-6.3661046,-25.079773,-1.5491531,1.3469568,-0.38041604,62.30625,88.162506,129.75,left
12327608758733,20.118853,12.144772,18.014963,-1.5491531,1.3469568,-0.38041604,62.30625,88.162506,129.75,left
12327603795973,20.118853,12.144772,18.014963,4.27361,-0.6591231,0.5383246,61.3875,89.006256,131.60626,left
12327620958108,20.118853,12.144772,18.014963,4.27361,-0.6591231,0.5383246,61.3875,89.006256,131.60626,left
12327630958056,20.118853,12.144772,18.014963,4.27361,-0.6591231,0.5383246,60.35625,88.03125,130.70625,left
12327627832691,4.7569313,-2.8199415,15.244075,0.8845322,-0.005497783,-0.43905905,60.506252,85.537506,129.50626,left
12327622869931,4.7569313,-2.8199415,15.244075,0.8845322,-0.005497783,-0.43905905,60.506252,85.537506,129.50626,left
12327640958004,4.7569313,-2.8199415,15.244075,0.8845322,-0.005497783,-0.43905905,60.506252,85.537506,129.50626,left
12327650957952,4.7569313,-2.8199415,15.244075,0.8845322,-0.005497783,-0.43905905,60.91875,89.26875,129.4875,left
12327646905712,5.852844,-7.797013,3.7441692,-0.6401863,-0.52961975,0.20723587,60.91875,89.26875,129.4875,left
12327660957900,5.852844,-7.797013,3.7441692,-0.6401863,-0.52961975,0.20723587,61.593754,88.33125,131.40001,left
12327641942952,5.852844,-7.797013,3.7441692,-0.6401863,-0.52961975,0.20723587,61.593754,88.33125,131.40001,left
12327670957848,5.852844,-7.797013,3.7441692,-0.6401863,-0.52961975,0.20723587,59.9625,87.3,129.8625,left
12327665979723,12.519248,2.4729822,1.805983,-0.6401863,-0.52961975,0.20723587,59.9625,87.3,129.8625,left
12327661016962,12.519248,2.4729822,1.805983,0.7342595,-0.36224282,-0.05421425,59.9625,87.3,129.8625,left
12327680957796,12.519248,2.4729822,1.805983,0.7342595,-0.36224282,-0.05421425,61.893753,88.36875,131.13751,left
12327690957743,12.519248,2.4729822,1.805983,0.7342595,-0.36224282,-0.05421425,61.443752,88.481255,130.20001,left
12327685052691,7.867601,3.042474,4.4668016,0.7342595,-0.36224282,-0.05421425,61.443752,88.481255,130.20001,left
12327680089931,7.867601,3.042474,4.4668016,-0.0097738365,0.1802051,0.33796093,59.49375,87.24375,129.375,left
12327700957691,7.867601,3.042474,4.4668016,-0.0097738365,0.1802051,0.33796093,59.49375,87.24375,129.375,left
12327710957639,7.867601,3.042474,4.4668016,-0.0097738365,0.1802051,0.33796093,60.956253,90.80625,130.5,left
12327704126702,5.919843,-3.51386,4.859225,-0.0097738365,0.1802051,0.33796093,60.956253,90.80625,130.5,left
12327699163941,5.919843,-3.51386,4.859225,-1.4391974,0.055588696,0.66171926,60.468754,89.043755,130.6125,left
12327720957587,5.919843,-3.51386,4.859225,-1.4391974,0.055588696,0.66171926,60.468754,89.043755,130.6125,left
12327730957535,7.6666036,-6.5479593,2.1218355,-1.4391974,0.055588696,0.66171926,62.23125,88.537506,132.31876,left
12327723199723,7.6666036,-6.5479593,2.1218355,-1.4391974,0.055588696,0.66171926,62.23125,88.537506,132.31876,left
12327718236962,7.6666036,-6.5479593,2.1218355,-0.69516414,0.09834923,0.58108515,62.23125,88.537506,132.31876,left
12327740957483,7.6666036,-6.5479593,2.1218355,-0.69516414,0.09834923,0.58108515,62.381252,90.3,129.84375,left
12327750957431,7.6666036,-6.5479593,2.1218355,-0.69516414,0.09834923,0.58108515,62.568752,90.450005,130.27501,left
12327742273733,7.5661054,-4.21735,2.5429723,-0.69516414,0.09834923,0.58108515,62.568752,90.450005,130.27501,left
12327737310973,7.5661054,-4.21735,2.5429723,0.8625411,0.35246897,0.55787224,62.568752,90.450005,130.27501,left
12327760957379,7.5661054,-4.21735,2.5429723,0.8625411,0.35246897,0.55787224,61.125004,88.125,131.21251,left
12327770957327,7.5661054,-4.21735,2.5429723,0.8625411,0.35246897,0.55787224,61.4625,87.01875,132.24376,left
12327756353941,7.5661054,-4.21735,2.5429723,1.1899645,0.5577195,0.61040664,61.4625,87.01875,132.24376,left
12327761316702,6.8051877,-2.0877378,4.4524446,1.1899645,0.5577195,0.61040664,61.4625,87.01875,132.24376,left
12327780957275,6.8051877,-2.0877378,4.4524446,1.1899645,0.5577195,0.61040664,63.35625,89.71875,129.58125,left
12327775426962,7.331609,-3.150151,4.0504503,0.53145236,0.6688969,0.6702714,63.843754,90.075005,129.15001,left
12327790957223,7.331609,-3.150151,4.0504503,0.53145236,0.6688969,0.6702714,63.843754,90.075005,129.15001,left
12327780389723,7.331609,-3.150151,4.0504503,1.1899645,0.5577195,0.61040664,63.35625,89.71875,129.58125,left
12327800957171,7.331609,-3.150151,4.0504503,0.53145236,0.6688969,0.6702714,62.79375,91.6875,126.99375,left
12327794500973,7.331609,-3.150151,4.0504503,-0.017104214,0.813061,0.649502,62.79375,91.6875,126.99375,left
12327799463733,8.207381,-3.987639,3.141178,-0.017104214,0.813061,0.649502,65.025,91.537506,128.13751,left
12327810957118,8.207381,-3.987639,3.141178,-0.017104214,0.813061,0.649502,65.025,91.537506,128.13751,left
12327820957066,8.207381,-3.987639,3.141178,-0.017104214,0.813061,0.649502,62.23125,89.34375,127.443756,left
12327813573941,8.207381,-3.987639,3.141178,0.17470732,0.96699893,0.62751085,62.23125,89.34375,127.443756,left
12327830957014,8.207381,-3.987639,3.141178,0.17470732,0.96699893,0.62751085,64.89375,90.543755,126.9,left
12327818536702,7.958528,-4.4662037,3.19382,0.17470732,0.96699893,0.62751085,64.89375,90.543755,126.9,left
12327840956962,7.958528,-4.4662037,3.19382,0.17470732,0.96699893,0.62751085,64.875,91.6875,126.506256,left
12327837610712,7.288538,-4.6145587,4.0217366,0.7171553,1.0036508,0.6397281,64.875,91.6875,126.506256,left
12327832647952,7.288538,-4.6145587,4.0217366,0.7171553,1.0036508,0.6397281,64.875,91.6875,126.506256,left
12327850956910,7.288538,-4.6145587,4.0217366,0.7171553,1.0036508,0.6397281,63.24375,90.637505,126.28126,left
12327860956858,7.288538,-4.6145587,4.0217366,0.7171553,1.0036508,0.6397281,63.35625,91.65,125.887505,left
12327856683733,7.881958,-4.322634,5.620142,1.1569779,0.9315688,0.604298,63.35625,91.65,125.887505,left
12327851720973,7.881958,-4.322634,5.620142,1.1569779,0.9315688,0.604298,63.35625,91.65,125.887505,left
12327870956806,7.881958,-4.322634,5.620142,1.1569779,0.9315688,0.604298,63.843754,90.731255,125.025,left
12327880956754,7.881958,-4.322634,5.620142,1.1569779,0.9315688,0.604298,64.631256,91.275,124.78126,left
12327875757691,8.628518,-3.3846476,6.9744797,1.0494657,0.7812961,0.50045097,64.631256,91.275,124.78126,left
12327870794931,8.628518,-3.3846476,6.9744797,1.0494657,0.7812961,0.50045097,64.631256,91.275,124.78126,left
12327890956702,8.628518,-3.3846476,6.9744797,1.0494657,0.7812961,0.50045097,65.71875,90.1125,125.7375,left
12327900956650,8.628518,-3.3846476,6.9744797,1.0494657,0.7812961,0.50045097,65.100006,91.481255,124.668755,left
12327894830712,8.848659,-1.6809579,6.6825557,0.67195123,0.63224506,0.37216938,65.100006,91.481255,124.668755,left
12327889867952,8.848659,-1.6809579,6.6825557,0.67195123,0.63224506,0.37216938,65.100006,91.481255,124.668755,left
12327910956598,8.848659,-1.6809579,6.6825557,0.67195123,0.63224506,0.37216938,64.6875,91.856255,123.99375,left
12327920956546,8.848659,-1.6809579,6.6825557,0.67195123,0.63224506,0.37216938,64.725006,91.03125,123.20625,left
12327913904723,9.068798,-3.1980073,4.9692945,0.77213305,0.411112,0.42959064,64.725006,91.03125,123.20625,left
12327908941962,9.068798,-3.1980073,4.9692945,0.77213305,0.411112,0.42959064,64.725006,91.03125,123.20625,left
12327930956493,9.068798,-3.1980073,4.9692945,0.77213305,0.411112,0.42959064,65.83125,91.6125,122.981255,left
12327940956441,9.068798,-3.1980073,4.9692945,0.77213305,0.411112,0.42959064,65.64375,91.481255,121.818756,left
12327932947691,8.240881,-5.7631135,4.3471603,1.2131774,0.41233373,0.46624255,65.64375,91.481255,121.818756,left
12327927984931,8.240881,-5.7631135,4.3471603,1.2131774,0.41233373,0.46624255,65.64375,91.481255,121.818756,left
12327950956389,8.240881,-5.7631135,4.3471603,1.2131774,0.41233373,0.46624255,66.1125,91.668755,121.70625,left
12327960956337,8.240881,-5.7631135,4.3471603,1.2131774,0.41233373,0.46624255,66.80625,92.64375,120.825005,left
12327952020712,7.9106717,-4.068995,6.2805614,1.6859868,0.4489856,0.21090107,66.80625,92.64375,120.825005,left
12327947057952,7.9106717,-4.068995,6.2805614,1.6859868,0.4489856,0.21090107,66.80625,92.64375,120.825005,left
12327970956285,7.9106717,-4.068995,6.2805614,1.6859868,0.4489856,0.21090107,67.51875,90.881256,120.918755,left
12327980956233,7.9106717,-4.068995,6.2805614,1.6859868,0.4489856,0.21090107,66.825005,89.925,122.100006,left
12327966131962,8.015956,-1.5900307,8.099107,1.4501929,0.3084867,0.25121814,66.825005,89.925,122.100006,left
12327971094723,8.015956,-1.5900307,8.099107,1.4501929,0.3084867,0.25121814,66.825005,89.925,122.100006,left
12327990956181,8.015956,-1.5900307,8.099107,1.4501929,0.3084867,0.25121814,66.4875,91.350006,119.7375,left
12327985204931,8.015956,-1.5900307,8.099107,0.62919074,0.08857539,0.26343542,66.4875,91.350006,119.7375,left
12327990167691,8.202596,-0.96789676,7.768897,0.62919074,0.08857539,0.26343542,66.99375,87.5625,121.33125,left
12328000956129,8.202596,-0.96789676,7.768897,0.62919074,0.08857539,0.26343542,66.99375,87.5625,121.33125,left
12328010956077,8.202596,-0.96789676,7.768897,0.62919074,0.08857539,0.26343542,68.475006,88.0875,124.8,left
12328020956025,8.202596,-0.96789676,7.768897,-0.06475167,-0.022601997,0.2988656,67.6875,89.4375,123.131256,left
12328004278941,8.202596,-0.96789676,7.768897,-0.06475167,-0.022601997,0.2988656,67.6875,89.4375,123.131256,left
12328009241702,7.652247,-1.8293129,6.4719872,-0.06475167,-0.022601997,0.2988656,67.6875,89.4375,123.131256,left
12328030955973,7.652247,-1.8293129,6.4719872,-0.06475167,-0.022601997,0.2988656,67.8375,89.30625,123.881256,left
12328028314723,6.9726853,-3.3750763,5.6871414,-0.06475167,-0.022601997,0.2988656,67.8375,89.30625,123.881256,left
12328040955921,6.9726853,-3.3750763,5.6871414,-0.28954992,-0.06169734,0.32696536,67.8,89.025,123.318756,left
12328023351962,6.9726853,-3.3750763,5.6871414,-0.28954992,-0.06169734,0.32696536,67.8,89.025,123.318756,left
12328050955868,6.9726853,-3.3750763,5.6871414,-0.28954992,-0.06169734,0.32696536,68.55,90.5625,122.381256,left
12328047388733,6.829116,-4.226921,5.768497,-0.28954992,-0.06169734,0.32696536,68.55,90.5625,122.381256,left
12328042425973,6.829116,-4.226921,5.768497,-0.26267186,-0.083688475,0.260992,65.2125,86.9625,124.537506,left
12328060955816,6.829116,-4.226921,5.768497,-0.26267186,-0.083688475,0.260992,65.2125,86.9625,124.537506,left
12328070955764,6.829116,-4.226921,5.768497,-0.26267186,-0.083688475,0.260992,67.443756,90.15,122.006256,left
12328061498941,7.01097,-4.1551366,6.376274,-0.17104214,-0.08857539,0.18280129,67.443756,90.15,122.006256,left
12328066461702,7.01097,-4.1551366,6.376274,-0.17104214,-0.08857539,0.18280129,67.443756,90.15,122.006256,left
12328080955712,7.01097,-4.1551366,6.376274,-0.17104214,-0.08857539,0.18280129,68.793755,90.01875,122.756256,left
12328090955660,7.01097,-4.1551366,6.376274,-0.17104214,-0.08857539,0.18280129,66.131256,88.8,123.731255,left
12328085504723,6.963114,-3.8967116,6.6921268,-0.17104214,-0.08857539,0.18280129,66.131256,88.8,123.731255,left
12328080541962,6.963114,-3.8967116,6.6921268,-0.14660755,-0.10690133,0.1424842,66.131256,88.8,123.731255,left
12328100955608,6.963114,-3.8967116,6.6921268,-0.14660755,-0.10690133,0.1424842,68.3625,91.200005,124.05,left
12328110955556,6.963114,-3.8967116,6.6921268,-0.14660755,-0.10690133,0.1424842,69.1875,89.662506,122.25001,left
12328104577691,6.6424756,-3.2027931,6.285347,-0.15638138,-0.09590577,0.10461059,69.1875,89.662506,122.25001,left
12328099614931,6.6424756,-3.2027931,6.285347,-0.15638138,-0.09590577,0.10461059,69.1875,89.662506,122.25001,left
12328120955504,6.6424756,-3.2027931,6.285347,-0.15638138,-0.09590577,0.10461059,67.40625,89.381256,124.40626,left
12328130955452,6.6424756,-3.2027931,6.285347,-0.15638138,-0.09590577,0.10461059,68.887505,89.45625,123.412506,left
12328123651702,6.6041903,-3.097509,6.189634,-0.15638138,-0.09590577,0.10461059,68.887505,89.45625,123.412506,left
12328118688941,6.6041903,-3.097509,6.189634,-0.07574723,-0.103236146,0.09605849,68.887505,89.45625,123.412506,left
12328140955400,6.6041903,-3.097509,6.189634,-0.07574723,-0.103236146,0.09605849,69.84375,91.275,123.61875,left
12328150955348,6.6041903,-3.097509,6.189634,-0.07574723,-0.103236146,0.09605849,67.8,90.131256,124.668755,left
12328142724723,6.6281185,-2.9826534,6.203991,-0.08552107,-0.07880156,0.07651082,67.8,90.131256,124.668755,left
12328137761962,6.6281185,-2.9826534,6.203991,-0.08552107,-0.07880156,0.07651082,67.8,90.131256,124.668755,left
12328160955296,6.6281185,-2.9826534,6.203991,-0.08552107,-0.07880156,0.07651082,67.89375,90.05625,122.2125,left
12328170955243,6.6281185,-2.9826534,6.203991,-0.08552107,-0.07880156,0.07651082,68.793755,90.01875,123.18751,left
12328156835973,6.680761,-2.9012976,6.065207,-0.2272417,-0.029932374,0.025198173,68.793755,90.01875,123.18751,left
12328180955191,6.680761,-2.9012976,6.065207,-0.2272417,-0.029932374,0.025198173,68.55,92.137505,121.350006,left
12328161798733,6.680761,-2.9012976,6.065207,-0.2272417,-0.029932374,0.025198173,68.793755,90.01875,123.18751,left
12328175908941,6.5850477,-3.245864,5.931209,-0.37140578,0.051923506,0.043524116,68.55,92.137505,121.350006,left
12328180871702,6.5850477,-3.245864,5.931209,-0.37140578,0.051923506,0.043524116,68.55,92.137505,121.350006,left
12328190955139,6.5850477,-3.245864,5.931209,-0.37140578,0.051923506,0.043524116,66.037506,90.975006,121.33125,left
12328200955087,6.5850477,-3.245864,5.931209,-0.37140578,0.051923506,0.043524116,65.418755,90.58125,122.30625,left
12328199945712,6.623333,-3.2219357,5.352146,-0.37140578,0.051923506,0.043524116,65.418755,90.58125,122.30625,left
12328194982952,6.623333,-3.2219357,5.352146,-0.3762927,0.15210533,0.045967575,65.418755,90.58125,122.30625,left
12328210955035,6.623333,-3.2219357,5.352146,-0.3762927,0.15210533,0.045967575,68.662506,93.15,121.275,left
12328230954931,6.623333,-3.2219357,5.352146,-0.16126831,0.24251331,0.0716239,67.425,90.1875,119.9625,left
12328219018733,6.647261,-3.298506,5.3425746,-0.16126831,0.24251331,0.0716239,67.425,90.1875,119.9625,left
12328214055973,6.647261,-3.298506,5.3425746,-0.16126831,0.24251331,0.0716239,67.425,90.1875,119.9625,left
12328220954983,6.647261,-3.298506,5.3425746,-0.16126831,0.24251331,0.0716239,67.425,90.1875,119.9625,left
12328240954879,6.647261,-3.298506,5.3425746,-0.16126831,0.24251331,0.0716239,68.662506,91.55625,122.5875,left
12328233098941,6.5084777,-3.418147,5.9120665,0.11362085,0.31703883,0.10583232,68.568756,92.137505,121.8,left
12328250954827,6.5084777,-3.418147,5.9120665,0.11362085,0.31703883,0.10583232,68.568756,92.137505,121.8,left
12328238061702,6.5084777,-3.418147,5.9120665,0.11362085,0.31703883,0.10583232,68.662506,91.55625,122.5875,left
12328260954775,6.5084777,-3.418147,5.9120665,0.11362085,0.31703883,0.10583232,67.875,92.756256,121.21876,left
12328257135712,6.5228343,-3.7052858,6.3810596,0.35430157,0.3451386,0.12171481,67.875,92.756256,121.21876,left
12328252172952,6.5228343,-3.7052858,6.3810596,0.35430157,0.3451386,0.12171481,67.875,92.756256,121.21876,left
12328270954723,6.5228343,-3.7052858,6.3810596,0.35430157,0.3451386,0.12171481,68.100006,92.100006,120.731255,left
12328280954671,6.5228343,-3.7052858,6.3810596,0.35430157,0.3451386,0.12171481,68.8125,91.93125,120.09376,left
12328271245973,6.4941206,-3.5234313,6.6777697,0.46059203,0.3695732,0.14737113,68.8125,91.93125,120.09376,left
12328276208733,6.4941206,-3.5234313,6.6777697,0.46059203,0.3695732,0.14737113,68.8125,91.93125,120.09376,left
12328290954618,6.4941206,-3.5234313,6.6777697,0.46059203,0.3695732,0.14737113,68.100006,92.418755,118.950005,left
12328300954566,6.4941206,-3.5234313,6.6777697,0.46059203,0.3695732,0.14737113,67.0875,91.106255,121.14375,left
12328290319931,6.623333,-3.0783663,7.0462646,0.38606653,0.35613418,0.16936226,67.0875,91.106255,121.14375,left
12328295282691,6.623333,-3.0783663,7.0462646,0.38606653,0.35613418,0.16936226,67.0875,91.106255,121.14375,left
12328310954514,6.623333,-3.0783663,7.0462646,0.38606653,0.35613418,0.16936226,68.756256,91.5,119.850006,left
12328320954462,6.623333,-3.0783663,7.0462646,0.38606653,0.35613418,0.16936226,68.606255,91.3125,120.58125,left
12328309392952,6.719046,-2.7912276,7.1228347,0.12217296,0.30604327,0.1913534,68.606255,91.3125,120.58125,left
12328314355712,6.719046,-2.7912276,7.1228347,0.12217296,0.30604327,0.1913534,68.606255,91.3125,120.58125,left
12328330954410,6.719046,-2.7912276,7.1228347,0.12217296,0.30604327,0.1913534,68.4375,91.14375,120.8625,left
12328340954358,6.647261,-3.32722,7.12762,0.12217296,0.30604327,0.1913534,68.8125,91.93125,120.09376,left
12328333429723,6.647261,-3.32722,7.12762,0.12217296,0.30604327,0.1913534,68.8125,91.93125,120.09376,left
12328328466962,6.647261,-3.32722,7.12762,-0.12217296,0.24617851,0.21456626,68.8125,91.93125,120.09376,left
12328350954306,6.647261,-3.32722,7.12762,-0.12217296,0.24617851,0.21456626,69.05625,94.21875,119.90626,left
12328360954254,6.6329045,-3.7627137,6.8691955,-0.12217296,0.24617851,0.21456626,70.068756,92.512505,119.756256,left
12328352502691,6.6329045,-3.7627137,6.8691955,-0.12217296,0.24617851,0.21456626,70.068756,92.512505,119.756256,left
12328347539931,6.6329045,-3.7627137,6.8691955,-0.20158538,0.20097451,0.2121228,70.068756,92.512505,119.756256,left
12328370954202,6.6329045,-3.7627137,6.8691955,-0.20158538,0.20097451,0.2121228,70.012505,93.3375,120.39375,left
12328380954150,6.6329045,-3.7627137,6.8691955,-0.20158538,0.20097451,0.2121228,69.037506,92.662506,119.62501,left
12328366613941,6.6329045,-3.7627137,6.8691955,-0.13561198,0.1802051,0.2084576,69.037506,92.662506,119.62501,left
12328371576702,6.704689,-3.7339997,6.687341,-0.13561198,0.1802051,0.2084576,69.037506,92.662506,119.62501,left
12328390954098,6.704689,-3.7339997,6.687341,-0.13561198,0.1802051,0.2084576,71.08125,92.381256,119.43751,left
12328400954046,6.647261,-3.7531424,7.0462646,-0.13561198,0.1802051,0.2084576,71.3625,93.225006,121.275,left
12328390649723,6.647261,-3.7531424,7.0462646,-0.13561198,0.1802051,0.2084576,71.3625,93.225006,121.275,left
12328385686962,6.647261,-3.7531424,7.0462646,-0.08429934,0.1631009,0.20112723,71.3625,93.225006,121.275,left
12328410953993,6.647261,-3.7531424,7.0462646,-0.08429934,0.1631009,0.20112723,69.9375,92.625,120.450005,left
12328409692691,6.8339014,-3.51386,6.988837,-0.05864302,0.12889247,0.1547015,69.356255,91.425,120.356255,left
12328404729931,6.8339014,-3.51386,6.988837,-0.05864302,0.12889247,0.1547015,69.9375,92.625,120.450005,left
12328420953941,6.8339014,-3.51386,6.988837,-0.05864302,0.12889247,0.1547015,69.356255,91.425,120.356255,left
12328430953889,6.8339014,-3.51386,6.988837,-0.05864302,0.12889247,0.1547015,70.6875,92.7375,119.943756,left
12328423803941,6.8339014,-3.51386,6.988837,-0.014660755,0.1178969,0.12660173,70.6875,92.7375,119.943756,left
12328440953837,6.8339014,-3.51386,6.988837,-0.014660755,0.1178969,0.12660173,69.075005,91.51875,120.9,left
12328428766702,6.8051877,-3.4851463,6.8261247,-0.014660755,0.1178969,0.12660173,69.075005,91.51875,120.9,left
12328450953785,6.8051877,-3.4851463,6.8261247,-0.014660755,0.1178969,0.12660173,70.78125,92.325005,119.850006,left
12328447839723,6.71426,-3.676572,6.8596244,0.0012217296,0.11178826,0.08506292,70.78125,92.325005,119.850006,left
12328442876962,6.71426,-3.676572,6.8596244,0.0012217296,0.11178826,0.08506292,70.78125,92.325005,119.850006,left
12328460953733,6.71426,-3.676572,6.8596244,0.0012217296,0.11178826,0.08506292,70.106255,92.793755,120.600006,left
12328470953681,6.71426,-3.676572,6.8596244,0.0012217296,0.11178826,0.08506292,69.037506,91.55625,118.425,left
12328466913733,6.7334027,-3.542574,6.701698,0.015882485,0.11300998,0.04963276,69.80625,92.7375,121.293755,left
12328461950973,6.7334027,-3.542574,6.701698,0.015882485,0.11300998,0.04963276,69.80625,92.7375,121.293755,left
12328480953629,6.7334027,-3.542574,6.701698,0.015882485,0.11300998,0.04963276,69.80625,92.7375,121.293755,left
12328481023941,6.7334027,-3.542574,6.701698,0.040317077,0.12156209,0.044745844,70.21875,92.3625,120.93751,left
12328490953577,6.7334027,-3.542574,6.701698,0.040317077,0.12156209,0.044745844,70.21875,92.3625,120.93751,left
12328485986702,6.570691,-3.6335013,6.6777697,0.040317077,0.12156209,0.044745844,70.21875,92.3625,120.93751,left
12328500953525,6.570691,-3.6335013,6.6777697,0.040317077,0.12156209,0.044745844,70.05,92.53125,119.025,left
12328510953473,6.570691,-3.6335013,6.6777697,0.040317077,0.12156209,0.044745844,68.418755,92.606255,118.818756,left
12328505060712,6.4606214,-3.6813576,6.625128,0.040317077,0.12156209,0.044745844,68.418755,92.606255,118.818756,left
12328500097952,6.4606214,-3.6813576,6.625128,0.06597339,0.12156209,0.023976443,68.418755,92.606255,118.818756,left
12328520953421,6.4606214,-3.6813576,6.625128,0.06597339,0.12156209,0.023976443,70.78125,92.325005,119.850006,left
12328530953368,6.4031935,-3.6574295,6.649056,0.06597339,0.12156209,0.023976443,69.84375,93.1875,120.525,left
12328524133733,6.4031935,-3.6574295,6.649056,0.06597339,0.12156209,0.023976443,69.84375,93.1875,120.525,left
12328519170973,6.4031935,-3.6574295,6.649056,0.14172062,0.12278382,-0.0004581486,69.84375,93.1875,120.525,left
12328540953316,6.4031935,-3.6574295,6.649056,0.14172062,0.12278382,-0.0004581486,69.0,92.381256,119.64375,left
12328550953264,6.4031935,-3.6574295,6.649056,0.14172062,0.12278382,-0.0004581486,69.600006,91.200005,118.8,left
12328538244931,6.3218374,-3.5760734,6.850053,0.17837252,0.13133593,-0.016340632,69.600006,91.200005,118.8,left
12328543207691,6.3218374,-3.5760734,6.850053,0.17837252,0.13133593,-0.016340632,69.600006,91.200005,118.8,left
12328560953212,6.3218374,-3.5760734,6.850053,0.17837252,0.13133593,-0.016340632,69.61875,92.606255,119.100006,left
12328570953160,6.3218374,-3.5760734,6.850053,0.17837252,0.13133593,-0.016340632,69.543755,90.450005,120.46876,left
12328562250712,6.4031935,-3.3080773,6.9266233,0.12828161,0.1301142,-0.038331766,69.543755,90.450005,120.46876,left
12328557287952,6.4031935,-3.3080773,6.9266233,0.12828161,0.1301142,-0.038331766,69.543755,90.450005,120.46876,left
12328580953108,6.4031935,-3.3080773,6.9266233,0.12828161,0.1301142,-0.038331766,70.725006,91.93125,118.425,left
12328590953056,6.245267,-3.4085758,7.0654073,0.02687805,0.11178826,-0.038331766,69.80625,91.33125,120.99375,left
12328576360973,6.245267,-3.4085758,7.0654073,0.02687805,0.11178826,-0.038331766,69.80625,91.33125,120.99375,left
12328581323733,6.245267,-3.4085758,7.0654073,0.02687805,0.11178826,-0.038331766,69.80625,91.33125,120.99375,left
12328600953004,6.245267,-3.4085758,7.0654073,0.02687805,0.11178826,-0.038331766,70.443756,91.856255,119.850006,left
12328600397691,6.1399827,-3.595216,6.984051,0.02687805,0.11178826,-0.038331766,70.443756,91.856255,119.850006,left
12328595434931,6.1399827,-3.595216,6.984051,-0.035430156,0.083688475,-0.05421425,71.100006,92.34375,120.75001,left
12328610952952,6.1399827,-3.595216,6.984051,-0.035430156,0.083688475,-0.05421425,71.100006,92.34375,120.75001,left
12328620952900,6.1399827,-3.595216,6.984051,-0.035430156,0.083688475,-0.05421425,71.68125,89.287506,121.70625,left
12328619470712,6.1399827,-3.4229329,6.730412,0.023212861,0.07269291,-0.055435978,71.68125,89.287506,121.70625,left
12328614507952,6.1399827,-3.4229329,6.730412,0.023212861,0.07269291,-0.055435978,71.53125,90.543755,121.856255,left
12328630952848,6.1399827,-3.4229329,6.730412,0.023212861,0.07269291,-0.055435978,71.53125,90.543755,121.856255,left
12328640952796,6.1399827,-3.4229329,6.730412,0.023212861,0.07269291,-0.055435978,70.0875,91.725006,117.506256,left
12328638544723,5.986842,-3.3511481,6.7926254,0.09651663,0.07391464,-0.032223117,70.0875,91.725006,117.506256,left
12328633581962,5.986842,-3.3511481,6.7926254,0.09651663,0.07391464,-0.032223117,70.0875,91.725006,117.506256,left
12328650952743,5.986842,-3.3511481,6.7926254,0.09651663,0.07391464,-0.032223117,70.762505,89.34375,120.43125,left
12328660952691,5.986842,-3.3511481,6.7926254,0.09651663,0.07391464,-0.032223117,68.30625,91.59375,118.912506,left
12328657617691,6.058627,-3.1597223,6.854839,0.09651663,0.07391464,-0.032223117,68.30625,91.59375,118.912506,left
12328652654931,6.058627,-3.1597223,6.854839,0.07819069,0.06291907,-0.020005822,68.30625,91.59375,118.912506,left
12328670952639,6.058627,-3.1597223,6.854839,0.07819069,0.06291907,-0.020005822,72.262505,91.93125,120.787506,left
12328680952587,6.058627,-3.1597223,6.854839,0.07819069,0.06291907,-0.020005822,70.200005,92.4,119.49375,left
12328676691702,6.1591253,-3.178865,6.945766,-0.0036651888,0.04703659,0.009315688,70.200005,92.4,119.49375,left
12328671728941,6.1591253,-3.178865,6.945766,-0.0036651888,0.04703659,0.009315688,70.200005,92.4,119.49375,left
12328690952535,6.1591253,-3.178865,6.945766,-0.0036651888,0.04703659,0.009315688,71.850006,91.36875,118.18125,left
12328700952483,6.1591253,-3.178865,6.945766,-0.0036651888,0.04703659,0.009315688,69.543755,92.0625,118.425,left
12328695764723,6.1495543,-3.379862,6.850053,-0.05742129,0.031154104,0.041080657,69.543755,92.0625,118.425,left
12328690801962,6.1495543,-3.379862,6.850053,-0.05742129,0.031154104,0.041080657,69.543755,92.0625,118.425,left
12328710952431,6.1495543,-3.379862,6.850053,-0.05742129,0.031154104,0.041080657,71.8125,92.025,120.28126,left
12328720952379,6.1495543,-3.379862,6.850053,-0.05742129,0.031154104,0.041080657,70.425,91.875,119.137505,left
12328709874931,6.1160545,-3.5569308,6.7351975,-0.019547673,0.027488915,0.06185006,70.425,91.875,119.137505,left
12328714837691,6.1160545,-3.5569308,6.7351975,-0.05742129,0.031154104,0.041080657,70.425,91.875,119.137505,left
12328730952327,6.1160545,-3.5569308,6.7351975,-0.019547673,0.027488915,0.06185006,72.3375,88.21875,122.90626,left
12328740952275,6.1160545,-3.5569308,6.7351975,-0.019547673,0.027488915,0.06185006,69.881256,90.787506,120.4875,left
12328733880712,6.101698,-3.4851463,6.672984,0.043982264,0.03848448,0.081397735,71.49375,92.006256,119.231255,left
12328728917952,6.101698,-3.4851463,6.672984,0.043982264,0.03848448,0.081397735,71.49375,92.006256,119.231255,left
12328750952223,6.101698,-3.4851463,6.672984,0.043982264,0.03848448,0.081397735,71.49375,92.006256,119.231255,left
12328760952171,6.101698,-3.4851463,6.672984,0.043982264,0.03848448,0.081397735,70.78125,90.43125,122.2125,left
12328747991962,6.101698,-3.4851463,6.672984,0.06963859,0.04214967,0.09117157,70.78125,90.43125,122.2125,left
12328752954723,6.135197,-3.4851463,6.7878394,0.06963859,0.04214967,0.09117157,70.78125,90.43125,122.2125,left
12328770952118,6.135197,-3.4851463,6.7878394,0.06963859,0.04214967,0.09117157,71.3625,90.375,122.006256,left
12328780952066,6.1974106,-3.3463624,6.7686973,0.06963859,0.04214967,0.09117157,72.9375,89.887505,121.65,left
12328772027691,6.1974106,-3.3463624,6.7686973,0.062308207,0.045814857,0.08872811,72.9375,89.887505,121.65,left
12328767064931,6.1974106,-3.3463624,6.7686973,0.062308207,0.045814857,0.08872811,72.9375,89.887505,121.65,left
12328790952014,6.1974106,-3.3463624,6.7686973,0.062308207,0.045814857,0.08872811,71.55,92.418755,120.225006,left
12328800951962,6.125626,-3.2602208,6.7639112,0.062308207,0.045814857,0.08872811,70.912506,90.637505,120.61875,left
12328791101702,6.125626,-3.2602208,6.7639112,0.062308207,0.045814857,0.08872811,70.912506,90.637505,120.61875,left
12328786138941,6.125626,-3.2602208,6.7639112,0.040317077,0.059253883,0.08994984,70.912506,90.637505,120.61875,left
12328810951910,6.125626,-3.2602208,6.7639112,0.040317077,0.059253883,0.08994984,71.231255,92.231255,120.05625,left
12328810174723,6.0634127,-3.0400813,7.0223365,0.040317077,0.059253883,0.08994984,71.231255,92.231255,120.05625,left
12328820951858,6.0634127,-3.0400813,7.0223365,-0.021991132,0.07391464,0.08628465,70.443756,91.8375,120.450005,left
12328830951806,6.0634127,-3.0400813,7.0223365,-0.021991132,0.07391464,0.08628465,70.443756,91.8375,120.450005,left
12328805211962,6.0634127,-3.0400813,7.0223365,-0.021991132,0.07391464,0.08628465,70.443756,91.8375,120.450005,left
12328829248733,6.0825553,-2.2648067,7.845467,-0.040317077,0.07147118,0.099723674,70.443756,91.8375,120.450005,left
12328840951754,6.0825553,-2.2648067,7.845467,-0.040317077,0.07147118,0.099723674,71.568756,91.3125,119.45625,left
12328824285973,6.0825553,-2.2648067,7.845467,-0.040317077,0.07147118,0.099723674,71.568756,91.3125,119.45625,left
12328850951702,6.0825553,-2.2648067,7.845467,-0.040317077,0.07147118,0.099723674,70.425,90.450005,119.418755,left
12328843358941,6.125626,-1.4321043,9.482158,-0.0024434591,0.0067195124,0.17302746,72.075005,92.100006,118.275,left
12328860951650,6.125626,-1.4321043,9.482158,-0.0024434591,0.0067195124,0.17302746,72.075005,92.100006,118.275,left
12328848321702,6.125626,-1.4321043,9.482158,-0.0024434591,0.0067195124,0.17302746,72.075005,92.100006,118.275,left
12328870951598,6.125626,-1.4321043,9.482158,-0.0024434591,0.0067195124,0.17302746,69.675,91.762505,119.775,left
12328880951546,6.020342,-1.9585253,10.769497,0.0061086477,-0.20097451,0.29153523,69.825005,91.631256,119.9625,left
12328862432952,6.020342,-1.9585253,10.769497,0.0061086477,-0.20097451,0.29153523,69.825005,91.631256,119.9625,left
12328867395712,6.020342,-1.9585253,10.769497,0.0061086477,-0.20097451,0.29153523,69.825005,91.631256,119.9625,left
12328890951493,6.020342,-1.9585253,10.769497,0.0061086477,-0.20097451,0.29153523,71.775,91.74375,120.01875,left
12328881475973,6.0921264,-2.5375884,12.047264,-0.02443459,-0.50152,0.34529132,71.775,91.74375,120.01875,left
12328900951441,6.0921264,-2.5375884,12.047264,-0.02443459,-0.50152,0.34529132,71.662506,90.412506,122.475006,left
12328886438733,6.0921264,-2.5375884,12.047264,-0.02443459,-0.50152,0.34529132,71.662506,90.412506,122.475006,left
12328910951389,6.0921264,-2.5375884,12.047264,-0.02443459,-0.50152,0.34529132,71.71875,92.5875,120.37501,left
12328905511702,6.4031935,-2.934797,13.253246,-0.02443459,-0.50152,0.34529132,71.71875,92.5875,120.37501,left
12328900548941,6.4031935,-2.934797,13.253246,-0.33964083,-0.9291253,0.32330018,71.71875,92.5875,120.37501,left
12328920951337,6.4031935,-2.934797,13.253246,-0.33964083,-0.9291253,0.32330018,71.34375,93.225006,120.56251,left
12328930951285,6.4031935,-2.934797,13.253246,-0.33964083,-0.9291253,0.32330018,70.012505,93.3375,120.39375,left
12328919622952,7.2933235,-4.6432724,13.138391,-0.8307761,-1.5351032,0.10583232,70.012505,93.3375,120.39375,left
12328924585712,7.2933235,-4.6432724,13.138391,-0.8307761,-1.5351032,0.10583232,70.012505,93.3375,120.39375,left
12328950951181,7.2933235,-4.6432724,13.138391,-0.8307761,-1.5351032,0.10583232,69.037506,92.325005,122.55,left
12328940951233,7.2933235,-4.6432724,13.138391,-0.8307761,-1.5351032,0.10583232,69.037506,92.325005,122.55,left
12328938695973,7.312466,-7.672586,11.927623,-1.1239913,-2.0555599,-0.17150028,69.037506,92.325005,122.55,left
12328943658733,7.312466,-7.672586,11.927623,-1.1239913,-2.0555599,-0.17150028,69.037506,92.325005,122.55,left
12328960951129,7.312466,-7.672586,11.927623,-1.1239913,-2.0555599,-0.17150028,68.006256,93.75,122.15626,left
12328970951077,7.312466,-7.672586,11.927623,-1.1239913,-2.0555599,-0.17150028,68.4375,91.425,127.668755,left
12328962732691,7.771888,-8.974281,9.434301,-1.2217295,-2.489274,-0.59544045,68.4375,91.425,127.668755,left
12328957769931,7.771888,-8.974281,9.434301,-1.2217295,-2.489274,-0.59544045,68.4375,91.425,127.668755,left
12328980951025,7.771888,-8.974281,9.434301,-1.2217295,-2.489274,-0.59544045,69.1875,94.36875,126.3,left
12328990950973,7.771888,-8.974281,9.434301,-1.2217295,-2.489274,-0.59544045,67.2375,92.512505,128.58751,left
12328981805712,8.4705925,-9.749556,7.34776,-1.2217295,-2.489274,-0.59544045,67.2375,92.512505,128.58751,left
12328976842952,8.4705925,-9.749556,7.34776,-1.1313215,-2.7995932,-1.1439971,67.2375,92.512505,128.58751,left
12329000950921,8.4705925,-9.749556,7.34776,-1.1313215,-2.7995932,-1.1439971,65.64375,92.86875,128.6625,left
12329000879723,8.130812,-10.199407,4.471587,-1.1313215,-2.7995932,-1.1439971,65.64375,92.86875,128.6625,left
12328995916962,8.130812,-10.199407,4.471587,-0.9944879,-2.8973317,-1.8159482,65.64375,92.86875,128.6625,left
12329010950868,8.130812,-10.199407,4.471587,-0.9944879,-2.8973317,-1.8159482,67.575005,93.9375,130.08751,left
12329020950816,8.130812,-10.199407,4.471587,-0.9944879,-2.8973317,-1.8159482,65.625,92.55,130.14375,left
12329014989931,8.130812,-10.199407,4.471587,-0.7867938,-2.73362,-2.5550947,64.0875,90.4875,131.625,left
12329030950764,8.130812,-10.199407,4.471587,-0.7867938,-2.73362,-2.5550947,64.0875,90.4875,131.625,left
12329019952691,7.728817,-9.251849,1.2747762,-0.7867938,-2.73362,-2.5550947,64.0875,90.4875,131.625,left
12329040950712,7.728817,-9.251849,1.2747762,-0.7867938,-2.73362,-2.5550947,63.787502,90.43125,132.31876,left
12329034063941,7.728817,-9.251849,1.2747762,-0.5986475,-2.3829834,-3.1500769,60.281254,89.662506,133.29376,left
12329050950660,7.728817,-9.251849,1.2747762,-0.5986475,-2.3829834,-3.1500769,60.281254,89.662506,133.29376,left
12329039026702,7.8149586,-6.0023956,-1.8263218,-0.5986475,-2.3829834,-3.1500769,60.281254,89.662506,133.29376,left
12329060950608,7.8149586,-6.0023956,-1.8263218,-0.5986475,-2.3829834,-3.1500769,59.30625,87.5625,133.10626,left
12329053106962,7.881958,-4.389633,-2.8408787,-0.41416633,-1.9175045,-3.4408486,59.4,86.662506,135.95625,left
12329070950556,7.881958,-4.389633,-2.8408787,-0.41416633,-1.9175045,-3.4408486,59.4,86.662506,135.95625,left
12329058069723,7.881958,-4.389633,-2.8408787,-0.41416633,-1.9175045,-3.4408486,59.4,86.662506,135.95625,left
12329080950504,7.881958,-4.389633,-2.8408787,-0.41416633,-1.9175045,-3.4408486,58.48125,85.14375,135.43126,left
12329077142691,8.015956,-2.0255244,-2.6111677,-0.59620404,-1.3164136,-3.6448774,57.05625,85.818756,134.60626,left
12329072179931,8.015956,-2.0255244,-2.6111677,-0.59620404,-1.3164136,-3.6448774,57.05625,85.818756,134.60626,left
12329090950452,8.015956,-2.0255244,-2.6111677,-0.59620404,-1.3164136,-3.6448774,57.05625,85.818756,134.60626,left
12329100950400,7.9776707,0.7405786,-0.72083783,-0.59620404,-1.3164136,-3.6448774,57.80625,82.912506,136.725,left
12329096216702,7.9776707,0.7405786,-0.72083783,-0.7977894,-0.66034484,-3.709629,56.925003,82.912506,137.49376,left
12329091253941,7.9776707,0.7405786,-0.72083783,-0.7977894,-0.66034484,-3.709629,56.193752,78.84375,138.09375,left
12329110326962,6.896115,1.8125632,0.8105687,-0.86131936,-0.14599667,-3.4982698,56.193752,78.84375,138.09375,left
12329110950348,6.896115,1.8125632,0.8105687,-0.86131936,-0.14599667,-3.4982698,56.193752,78.84375,138.09375,left
12329120950296,6.896115,1.8125632,0.8105687,-0.86131936,-0.14599667,-3.4982698,56.193752,78.84375,138.09375,left
12329115289723,6.896115,1.8125632,0.8105687,-0.86131936,-0.14599667,-3.4982698,56.193752,78.84375,138.09375,left
12329130950243,6.896115,1.8125632,0.8105687,-0.86131936,-0.14599667,-3.4982698,56.9625,74.49375,141.52501,left
12329140950191,6.896115,1.8125632,0.8105687,-0.86131936,-0.14599667,-3.4982698,56.925003,72.61875,142.425,left
12329134363733,5.938986,0.8554341,1.2077773,-0.86131936,-0.14599667,-3.4982698,56.925003,72.61875,142.425,left
12329129400973,5.938986,0.8554341,1.2077773,-0.47280934,0.26572618,-3.114647,56.925003,72.61875,142.425,left
12329150950139,5.938986,0.8554341,1.2077773,-0.47280934,0.26572618,-3.114647,55.93125,73.537506,139.89375,left
12329160950087,5.938986,0.8554341,1.2077773,-0.47280934,0.26572618,-3.114647,56.456253,75.918755,137.70001,left
12329153436702,5.9676995,0.041874398,0.6047859,0.6230821,0.6493493,-2.7004805,56.456253,75.918755,137.70001,left
12329148473941,5.9676995,0.041874398,0.6047859,0.6230821,0.6493493,-2.7004805,56.456253,75.918755,137.70001,left
12329170950035,5.9676995,0.041874398,0.6047859,0.6230821,0.6493493,-2.7004805,54.468754,73.012505,136.14375,left
12329180949983,5.9676995,0.041874398,0.6047859,0.6230821,0.6493493,-2.7004805,53.9625,72.693756,135.1125,left
12329172510712,5.656633,1.0947163,-0.44805604,1.9975278,1.1368194,-2.0810635,53.9625,72.693756,135.1125,left
12329167547952,5.656633,1.0947163,-0.44805604,1.9975278,1.1368194,-2.0810635,53.9625,72.693756,135.1125,left
12329190949931,5.656633,1.0947163,-0.44805604,1.9975278,1.1368194,-2.0810635,55.95,73.575005,132.63751,left
12329200949879,5.656633,1.0947163,-0.44805604,1.9975278,1.1368194,-2.0810635,54.80625,70.818756,134.94376,left
12329191583733,4.7138605,4.066602,-0.5724828,2.937038,1.7037019,-1.2234094,54.80625,70.818756,134.94376,left
12329186620973,4.7138605,4.066602,-0.5724828,2.937038,1.7037019,-1.2234094,54.80625,70.818756,134.94376,left
12329210949827,4.7138605,4.066602,-0.5724828,2.937038,1.7037019,-1.2234094,53.68125,70.74375,131.925,left
12329210626702,4.814359,7.3974113,-0.34277186,2.8295257,2.271806,-0.38774642,53.68125,70.74375,131.925,left
12329205663941,4.814359,7.3974113,-0.34277186,2.8295257,2.271806,-0.38774642,55.125004,69.881256,134.49376,left
12329220949775,4.814359,7.3974113,-0.34277186,2.8295257,2.271806,-0.38774642,55.125004,69.881256,134.49376,left
12329230949723,4.814359,7.3974113,-0.34277186,2.8295257,2.271806,-0.38774642,57.018753,68.175,133.14375,left
12329224737952,4.814359,7.3974113,-0.34277186,1.5430444,2.9144359,0.4149299,57.018753,68.175,133.14375,left
12329240949671,4.508078,8.330612,0.61914283,1.5430444,2.9144359,0.4149299,55.800003,71.3625,129.33751,left
12329229700712,4.508078,8.330612,0.61914283,1.5430444,2.9144359,0.4149299,55.800003,71.3625,129.33751,left
12329250949618,4.508078,8.330612,0.61914283,1.5430444,2.9144359,0.4149299,55.8375,71.8125,128.2875,left
12329248773733,3.3355947,7.2059855,1.0833504,1.5430444,2.9144359,0.4149299,55.8375,71.8125,128.2875,left
12329243810973,3.3355947,7.2059855,1.0833504,-0.5204568,3.5240788,1.1736239,55.8375,71.8125,128.2875,left
12329260949566,3.3355947,7.2059855,1.0833504,-0.5204568,3.5240788,1.1736239,55.818752,68.981255,128.11876,left
12329270949514,3.3355947,7.2059855,1.0833504,-0.5204568,3.5240788,1.1736239,56.5125,73.106255,124.74375,left
12329267847691,2.024328,6.1770716,2.5812573,-2.1893394,4.016436,2.0471606,56.5125,73.106255,124.74375,left
12329262884931,2.024328,6.1770716,2.5812573,-2.1893394,4.016436,2.0471606,56.5125,73.106255,124.74375,left
12329280949462,2.024328,6.1770716,2.5812573,-2.1893394,4.016436,2.0471606,56.23125,71.943756,124.9875,left
12329290949410,2.024328,6.1770716,2.5812573,-2.1893394,4.016436,2.0471606,60.375004,75.75,124.068756,left
12329281957952,0.91405827,4.664808,4.519444,-2.3823726,4.329199,3.0465353,60.375004,75.75,124.068756,left
12329286920712,0.91405827,4.664808,4.519444,-2.3823726,4.329199,3.0465353,60.375004,75.75,124.068756,left
12329300949358,0.91405827,4.664808,4.519444,-2.3823726,4.329199,3.0465353,60.956253,77.26875,122.381256,left
12329310949306,0.91405827,4.664808,4.519444,-2.3823726,4.329199,3.0465353,61.4625,79.350006,121.21876,left
12329305994723,-0.41156548,3.635894,5.3473606,-2.00608,4.5063496,3.7771297,61.4625,79.350006,121.21876,left
12329301031962,-0.41156548,3.635894,5.3473606,-2.00608,4.5063496,3.7771297,61.4625,79.350006,121.21876,left
12329320949254,-0.41156548,3.635894,5.3473606,-2.00608,4.5063496,3.7771297,62.737503,81.84375,118.350006,left
12329330949202,-0.41156548,3.635894,5.3473606,-2.00608,4.5063496,3.7771297,65.850006,84.525,117.43125,left
12329325067691,-1.5122639,4.3537407,6.0029936,-2.5424192,4.5613275,4.2389436,65.850006,84.525,117.43125,left
12329320104931,-1.5122639,4.3537407,6.0029936,-2.5424192,4.5613275,4.2389436,65.850006,84.525,117.43125,left
12329340949150,-1.5122639,4.3537407,6.0029936,-2.5424192,4.5613275,4.2389436,68.100006,84.375,118.575005,left
12329350949098,-1.5122639,4.3537407,6.0029936,-2.5424192,4.5613275,4.2389436,68.025,85.21875,118.350006,left
12329344140712,-2.565106,2.774478,8.137392,-3.749488,4.337751,4.8265953,68.025,85.21875,118.350006,left
12329339177952,-2.565106,2.774478,8.137392,-3.749488,4.337751,4.8265953,68.025,85.21875,118.350006,left
12329360949046,-2.565106,2.774478,8.137392,-3.749488,4.337751,4.8265953,71.0625,91.3125,116.06251,left
12329370948993,-2.565106,2.774478,8.137392,-3.749488,4.337751,4.8265953,73.631256,90.84375,120.46876,left
12329363214723,-3.034099,-1.5134603,11.200205,-4.915018,3.8062985,5.343387,73.631256,90.84375,120.46876,left
12329358251962,-3.034099,-1.5134603,11.200205,-4.915018,3.8062985,5.343387,73.631256,90.84375,120.46876,left
12329380948941,-3.034099,-1.5134603,11.200205,-4.915018,3.8062985,5.343387,76.18125,94.05,118.55625,left
12329390948889,-3.034099,-1.5134603,11.200205,-4.915018,3.8062985,5.343387,76.6125,96.506256,118.8,left
12329382257691,-2.9623144,-7.59123,11.228918,-6.5020447,3.211316,5.433795,76.6125,96.506256,118.8,left
12329377294931,-2.9623144,-7.59123,11.228918,-6.5020447,3.211316,5.433795,76.6125,96.506256,118.8,left
12329400948837,-2.9623144,-7.59123,11.228918,-6.5020447,3.211316,5.433795,81.318756,102.3,120.95625,left
12329410948785,-2.9623144,-7.59123,11.228918,-6.5020447,3.211316,5.433795,82.106255,103.4625,123.84376,left
12329401330712,-1.7228323,-11.481959,5.4382877,-8.950391,2.2974625,5.1002626,82.106255,103.4625,123.84376,left
12329396367952,-1.7228323,-11.481959,5.4382877,-8.950391,2.2974625,5.1002626,82.106255,103.4625,123.84376,left
12329420948733,-1.7228323,-11.481959,5.4382877,-8.950391,2.2974625,5.1002626,83.4,106.70625,125.55,left
12329420404723,0.40677986,-18.301504,0.7292127,-10.556965,1.2870921,4.671436,83.4,106.70625,125.55,left
12329415441962,0.40677986,-18.301504,0.7292127,-10.556965,1.2870921,4.671436,83.4,106.70625,125.55,left
12329440948629,0.40677986,-18.301504,0.7292127,-10.556965,1.2870921,4.671436,87.450005,109.106255,136.96875,left
12329430948681,0.40677986,-18.301504,0.7292127,-10.556965,1.2870921,4.671436,87.450005,109.106255,136.96875,left
12329434514931,0.40677986,-18.301504,0.7292127,-10.420132,0.51495904,3.924959,87.450005,109.106255,136.96875,left
12329450948577,0.40677986,-18.301504,0.7292127,-10.420132,0.51495904,3.924959,87.15,108.731255,138.71251,left
12329439477691,2.6368906,-25.197618,-2.5345974,-10.420132,0.51495904,3.924959,87.15,108.731255,138.71251,left
12329460948525,2.6368906,-25.197618,-2.5345974,-10.420132,0.51495904,3.924959,88.425,108.65626,143.08125,left
12329458551702,4.2017965,-24.149563,-2.228316,-10.420132,0.51495904,3.924959,88.425,108.65626,143.08125,left
12329453588941,4.2017965,-24.149563,-2.228316,-9.246049,0.07513637,2.3733623,88.425,108.65626,143.08125,left
12329470948473,4.2017965,-24.149563,-2.228316,-9.246049,0.07513637,2.3733623,89.3625,111.09376,147.16876,left
12329480948421,4.2017965,-24.149563,-2.228316,-9.246049,0.07513637,2.3733623,90.4875,109.725006,151.95001,left
12329472661962,3.9625144,-24.742983,-5.2049875,-7.979116,-0.12767074,0.5994111,90.4875,109.725006,151.95001,left
12329477624723,3.9625144,-24.742983,-5.2049875,-7.979116,-0.12767074,0.5994111,90.4875,109.725006,151.95001,left
12329490948368,3.9625144,-24.742983,-5.2049875,-7.979116,-0.12767074,0.5994111,89.64375,108.600006,152.98126,left
12329500948316,3.9625144,-24.742983,-5.2049875,-7.979116,-0.12767074,0.5994111,91.14375,106.575005,157.55626,left
12329496698733,3.8093736,-29.002207,-8.765508,-7.979116,-0.12767074,0.5994111,91.14375,106.575005,157.55626,left
12329491735973,3.8093736,-29.002207,-8.765508,-4.834384,-0.13255766,-0.80802137,87.9,105.75001,156.54376,left
12329510948264,3.8093736,-29.002207,-8.765508,-4.834384,-0.13255766,-0.80802137,87.9,105.75001,156.54376,left
12329520948212,3.8093736,-29.002207,-8.765508,-4.834384,-0.13255766,-0.80802137,88.36875,105.61875,158.21251,left
12329515771702,2.914458,-23.972494,-10.138988,-4.834384,-0.13255766,-0.80802137,88.36875,105.61875,158.21251,left
12329510808941,2.914458,-23.972494,-10.138988,0.05497783,0.0140498895,-2.2936444,88.36875,105.61875,158.21251,left
12329530948160,2.914458,-23.972494,-10.138988,0.05497783,0.0140498895,-2.2936444,87.46875,106.12501,155.71875,left
12329540948108,2.914458,-23.972494,-10.138988,0.05497783,0.0140498895,-2.2936444,86.71875,107.475006,154.78125,left
12329534814723,1.5457634,-17.08595,-7.650452,0.05497783,0.0140498895,-2.2936444,86.71875,107.475006,154.78125,left
12329529851962,1.5457634,-17.08595,-7.650452,3.8728826,0.19120067,-3.4127488,86.71875,107.475006,154.78125,left
12329550948056,1.5457634,-17.08595,-7.650452,3.8728826,0.19120067,-3.4127488,85.575005,106.762505,154.725,left
12329560948004,1.5457634,-17.08595,-7.650452,5.412262,0.17653993,-4.143343,81.600006,107.71876,151.9875,left
12329548925973,1.5457634,-17.08595,-7.650452,5.412262,0.17653993,-4.143343,81.600006,107.71876,151.9875,left
12329553888733,1.1581261,-14.286347,-3.8841493,5.412262,0.17653993,-4.143343,81.600006,107.71876,151.9875,left
12329570947952,1.1581261,-14.286347,-3.8841493,5.412262,0.17653993,-4.143343,80.86875,105.56251,149.21251,left
12329580947900,1.1581261,-14.286347,-3.8841493,5.412262,0.17653993,-4.143343,80.662506,105.450005,146.7375,left
12329572961702,0.52163535,-9.902697,-1.0462617,6.324894,-0.06902772,-4.8873763,80.662506,105.450005,146.7375,left
12329567998941,0.52163535,-9.902697,-1.0462617,6.324894,-0.06902772,-4.8873763,80.662506,105.450005,146.7375,left
12329590947848,0.52163535,-9.902697,-1.0462617,6.324894,-0.06902772,-4.8873763,76.725006,105.58125,142.9125,left
12329592035712,-0.09092726,-4.9495535,-0.35712877,6.324894,-0.06902772,-4.8873763,75.825005,104.512505,141.46875,left
12329600947796,-0.09092726,-4.9495535,-0.35712877,6.324894,-0.06902772,-4.8873763,75.825005,104.512505,141.46875,left
12329587072952,-0.09092726,-4.9495535,-0.35712877,7.69934,-0.5027417,-5.1378307,75.825005,104.512505,141.46875,left
12329610947743,-0.09092726,-4.9495535,-0.35712877,7.69934,-0.5027417,-5.1378307,73.818756,103.36875,136.40625,left
12329620947691,-0.09092726,-4.9495535,-0.35712877,7.69934,-0.5027417,-5.1378307,73.068756,102.3375,134.40001,left
12329611108733,0.49292147,0.23808585,-1.0797613,9.060347,-1.0415244,-4.870272,73.068756,102.3375,134.40001,left
12329606145973,0.49292147,0.23808585,-1.0797613,9.060347,-1.0415244,-4.870272,73.068756,102.3375,134.40001,left
12329630947639,0.49292147,0.23808585,-1.0797613,9.060347,-1.0415244,-4.870272,68.662506,99.731255,130.21875,left
12329625219931,0.49292147,0.23808585,-1.0797613,9.936326,-1.4385866,-4.099361,69.61875,96.675,127.275,left
12329640947587,0.49292147,0.23808585,-1.0797613,9.936326,-1.4385866,-4.099361,69.61875,96.675,127.275,left
12329630182691,2.3306093,4.253242,-1.5296118,9.936326,-1.4385866,-4.099361,69.61875,96.675,127.275,left
12329650947535,2.3306093,4.253242,-1.5296118,9.936326,-1.4385866,-4.099361,66.262505,94.8375,126.356255,left
12329649255712,4.048656,8.182257,0.29850462,9.936326,-1.4385866,-4.099361,66.262505,94.8375,126.356255,left
12329660947483,4.048656,8.182257,0.29850462,9.863023,-1.5021164,-3.0217953,66.131256,94.350006,122.025,left
12329644292952,4.048656,8.182257,0.29850462,9.863023,-1.5021164,-3.0217953,66.131256,94.350006,122.025,left
12329670947431,4.048656,8.182257,0.29850462,9.863023,-1.5021164,-3.0217953,65.30625,89.90625,120.3375,left
12329663366962,4.551149,10.914861,3.9690945,8.820888,-1.4165955,-1.7573053,65.30625,89.90625,120.3375,left
12329668329723,4.551149,10.914861,3.9690945,8.820888,-1.4165955,-1.7573053,65.30625,89.90625,120.3375,left
12329680947379,4.551149,10.914861,3.9690945,8.820888,-1.4165955,-1.7573053,64.875,91.725006,118.65,left
12329690947327,4.551149,10.914861,3.9690945,8.820888,-1.4165955,-1.7573053,64.912506,88.068756,118.293755,left
12329687402691,5.3503513,8.766106,5.6727843,8.820888,-1.4165955,-1.7573053,64.912506,88.068756,118.293755,left
12329682439931,5.3503513,8.766106,5.6727843,7.055488,-1.0867285,-0.52580184,65.3625,86.850006,118.162506,left
12329700947275,5.3503513,8.766106,5.6727843,7.055488,-1.0867285,-0.52580184,65.3625,86.850006,118.162506,left
12329710947223,5.3503513,8.766106,5.6727843,7.055488,-1.0867285,-0.52580184,65.287506,84.731255,117.93751,left
12329706445712,4.599005,7.789834,5.797211,4.201528,-0.15332706,0.34529132,64.70625,86.3625,117.412506,left
